acc_x, acc_y, angular_z, stamp, 
0.022070586681365967, -0.005443930625915527, 4.225147635145783e-12, 1728048741798574598, 
0.003838658332824707, 0.010947763919830322, 4.6586616013870855e-07, 1728048741830560983, 
-0.0051416754722595215, -0.015777409076690674, 2.8125115244188536e-11, 1728048741857312233, 
-0.007109105587005615, -0.024529099464416504, 4.974927177146049e-07, 1728048741887267700, 
-0.005475640296936035, 0.018884599208831787, 5.146873770334493e-07, 1728048741916224559, 
0.0052468180656433105, 0.015289306640625, 1.096243261898573e-10, 1728048741946213363, 
0.0035843849182128906, 0.029604792594909668, 4.966440927766523e-07, 1728048741976223374, 
-0.0198938250541687, 0.000635981559753418, 4.96219105237019e-07, 1728048742006257691, 
-0.005693316459655762, 0.014868378639221191, 6.184562027101383e-11, 1728048742039031750, 
0.0033246278762817383, -0.006872296333312988, 3.798297697719166e-11, 1728048742068657025, 
0.006752192974090576, 0.016130447387695312, -5.223431346773983e-07, 1728048742097184793, 
-0.002246856689453125, 0.013943850994110107, -4.977325069180313e-07, 1728048742127128027, 
-0.005986154079437256, -0.020430028438568115, -4.975302836549793e-07, 1728048742157086677, 
-0.0022574663162231445, -0.02216273546218872, -9.94095486767365e-07, 1728048742187069776, 
-0.0021953582763671875, -0.020248770713806152, -4.91676031547128e-07, 1728048742217382816, 
0.0066010355949401855, -0.0075397491455078125, -5.093008941438803e-07, 1728048742246645176, 
0.011965692043304443, 0.005141317844390869, -4.603258755208032e-07, 1728048742279019719, 
-0.02235591411590576, -0.003785550594329834, -5.458157836971155e-07, 1728048742306323093, 
-0.027731478214263916, 0.0016070008277893066, -4.97100828266837e-07, 1728048742336301475, 
-0.00961160659790039, 0.005113959312438965, -4.973562937070692e-07, 1728048742366264723, 
0.019179463386535645, 0.0014036893844604492, -4.98053332942372e-07, 1728048742396186914, 
0.019206225872039795, -0.025577008724212646, -4.984764569793991e-07, 1728048742426084294, 
-0.01131516695022583, 0.03385508060455322, -4.2449205290278724e-11, 1728048742456101449, 
0.008626759052276611, -0.003980815410614014, -4.808113094341681e-07, 1728048742487095084, 
-0.0037249326705932617, 0.004886269569396973, -4.6941481834877696e-07, 1728048742518840799, 
0.0015159845352172852, -0.020308375358581543, -5.496965139337312e-07, 1728048742545949624, 
-0.012897491455078125, 0.002970457077026367, -4.980077043057496e-07, 1728048742575872156, 
-0.04314929246902466, -0.007771670818328857, -4.964361832457661e-07, 1728048742605888545, 
0.022018492221832275, 0.017489850521087646, 3.714048772719847e-11, 1728048742635807219, 
0.006111860275268555, -0.0021932125091552734, 5.2857922677618546e-11, 1728048742665735062, 
0.01881617307662964, 0.00874471664428711, 2.282001914840651e-11, 1728048742695778861, 
0.009808599948883057, -0.030560076236724854, 4.818252936335628e-07, 1728048742726704882, 
-0.002784430980682373, 0.012845218181610107, 4.668763861337107e-07, 1728048742758617318, 
0.00987333059310913, 0.005814850330352783, 1.1022484238232038e-06, 1728048742785652233, 
0.017012476921081543, 0.00048148632049560547, 1.9866304154966883e-06, 1728048742815653534, 
0.013256549835205078, -0.004926085472106934, 2.4984073909349812e-06, 1728048742845473776, 
-0.060333430767059326, 0.007735013961791992, 1.9914900542824546e-06, 1728048742875402196, 
-0.015050053596496582, 0.004171192646026611, 9.969872071587755e-07, 1728048742905291043, 
0.01221400499343872, -0.0299224853515625, 9.900274250214055e-07, 1728048742935388961, 
0.0032204389572143555, -0.008168816566467285, 1.8872411787407184e-06, 1728048742966968764, 
0.015933752059936523, -0.0043274760246276855, 2.4601641410305707e-06, 1728048742997250615, 
0.0034061670303344727, 0.006603240966796875, 2.6720759913146736e-06, 1728048743025130349, 
0.016035020351409912, 0.028173208236694336, 2.488435297196072e-06, 1728048743055067148, 
0.05549204349517822, -0.015097618103027344, 2.49143675019557e-06, 1728048743084968458, 
-0.027254164218902588, -0.015096962451934814, 2.5714853005919336e-06, 1728048743113939801, 
-0.025567471981048584, -0.02569115161895752, 2.408132944002755e-06, 1728048743144876127, 
-0.02181464433670044, -0.009265542030334473, 2.475647091060507e-06, 1728048743174967978, 
0.01954495906829834, 0.0035303235054016113, 2.7869759814693627e-06, 1728048743207044290, 
0.008751153945922852, 0.0001150369644165039, 2.502269814502962e-06, 1728048743236815359, 
0.015803992748260498, -0.004965841770172119, 2.669273138257749e-06, 1728048743264723769, 
-0.027283549308776855, 0.009541630744934082, 2.9829312555571607e-06, 1728048743294693230, 
0.008833467960357666, -0.008420586585998535, 2.9921397408214477e-06, 1728048743324570292, 
0.008750677108764648, 0.029199302196502686, 2.984002470395011e-06, 1728048743354528942, 
-0.012882709503173828, -0.01583641767501831, 2.4839202890631106e-06, 1728048743384520792, 
-0.00917363166809082, -0.008665025234222412, 2.434648488915548e-06, 1728048743415119519, 
0.003746509552001953, 0.002186894416809082, 2.765366132531488e-06, 1728048743447446652, 
-0.030166804790496826, 0.00749969482421875, 2.7625807767366452e-06, 1728048743474411813, 
0.0061997175216674805, 0.0020269155502319336, 2.4903257372764256e-06, 1728048743504324226, 
0.022719204425811768, -0.010665297508239746, 2.5745941913515903e-06, 1728048743533257682, 
0.0030485987663269043, 0.019782662391662598, 2.4867903333045965e-06, 1728048743563213275, 
-0.005914747714996338, 0.005339622497558594, 2.4100954142087505e-06, 1728048743594122786, 
-0.025509953498840332, -0.0019879937171936035, 2.4868095973463908e-06, 1728048743624079547, 
0.015936732292175293, 0.0014331340789794922, 1.9375800090686377e-06, 1728048743654838596, 
0.010294914245605469, 0.003030061721801758, 1.8754002010770877e-06, 1728048743686619149, 
-0.007898151874542236, -0.013274192810058594, 2.18003778605015e-06, 1728048743713959768, 
0.004727661609649658, -0.006294727325439453, 1.493051230597822e-06, 1728048743743901416, 
0.008121252059936523, -0.018919765949249268, 6.685528896708156e-11, 1728048743773870866, 
-0.008535623550415039, 0.006307482719421387, 3.068115598430603e-11, 1728048743803770332, 
-0.003379642963409424, -0.015081644058227539, 5.803280932044804e-13, 1728048743833735208, 
0.009231805801391602, -0.023775100708007812, -1.8749947856731176e-11, 1728048743863721918, 
-0.010761439800262451, 0.042998671531677246, 4.722862521611813e-07, 1728048743895270537, 
-0.005537569522857666, -0.0034772753715515137, 4.72973296525764e-07, 1728048743926774147, 
-0.012817680835723877, -0.033755719661712646, 5.563584242827109e-07, 1728048743953558677, 
0.025049328804016113, -0.013180017471313477, 0.0002953096933417623, 1728048743983481093, 
0.2884231209754944, 0.04367351531982422, -0.0004768740883635273, 1728048744013421075, 
1.4993714094161987, 0.40958648920059204, 0.054379585245583804, 1728048744043355035, 
0.5501123070716858, 0.22747033834457397, 0.14464127987370726, 1728048744073289824, 
1.3151218891143799, -0.2903556227684021, 0.19890040420706145, 1728048744103301441, 
0.49269378185272217, -0.16839879751205444, 0.24022963580649656, 1728048744134820557, 
0.5562403202056885, 0.46586620807647705, 0.2782506233541528, 1728048744165982410, 
0.6251080632209778, 0.27908414602279663, 0.3710259498862504, 1728048744193203341, 
0.7776761054992676, 0.10401403903961182, 0.4137908009423023, 1728048744223015286, 
0.9100862741470337, 0.13714087009429932, 0.4749488950869765, 1728048744253002472, 
0.1075858473777771, -0.012475252151489258, 0.5058967730765125, 1728048744282999157, 
-0.047145843505859375, -0.08823603391647339, 0.5256834373649816, 1728048744312857155, 
-0.129244863986969, 0.33387231826782227, 0.48552517987945704, 1728048744343453405, 
-0.011293947696685791, 0.3107895851135254, 0.4715606916019569, 1728048744375127490, 
-0.2121753692626953, -0.4196529984474182, 0.5276007992038451, 1728048744402784673, 
-0.2879430651664734, 0.47478437423706055, 0.4861445571927577, 1728048744432707478, 
0.31684571504592896, 0.5137385129928589, 0.5233705525794587, 1728048744462657707, 
-0.5534742474555969, -0.6592113971710205, 0.5287744246775026, 1728048744492562551, 
0.6103055477142334, -0.033431291580200195, 0.5167721441467408, 1728048744522545524, 
0.2597188353538513, 0.8870363235473633, 0.5284080929062716, 1728048744552496149, 
0.04845261573791504, -0.19742798805236816, 0.4928476465125992, 1728048744583094364, 
-0.34219086170196533, -0.2579278349876404, 0.46402522645013844, 1728048744614859195, 
0.16306042671203613, 0.6110270619392395, 0.5349411050017766, 1728048744642428123, 
-0.3348984718322754, 0.1623016595840454, 0.48290119653837965, 1728048744672288135, 
-0.05169844627380371, -0.4776897430419922, 0.521306300286175, 1728048744701253139, 
0.0882260799407959, 0.369956910610199, 0.5028682644966476, 1728048744732154059, 
0.30895179510116577, 0.2398606538772583, 0.5009325771488833, 1728048744762184219, 
-0.40744590759277344, -0.5106267929077148, 0.4955422583314627, 1728048744792199259, 
0.28379786014556885, 0.42875784635543823, 0.48000701161957277, 1728048744822703873, 
0.23724544048309326, 0.40441465377807617, 0.48948183748034274, 1728048744854464934, 
-0.2291749119758606, -0.5763199329376221, 0.5495352857318166, 1728048744882015739, 
-0.11719489097595215, 0.11710470914840698, 0.4871130150093533, 1728048744911848982, 
0.07119184732437134, 0.5771011114120483, 0.47119063235643743, 1728048744941841879, 
0.5099201798439026, -0.193478524684906, 0.48326981298593513, 1728048744971760702, 
-0.4032067656517029, 0.01956784725189209, 0.5152665539113973, 1728048745001729358, 
0.5651199817657471, 0.40520113706588745, 0.5250973619331517, 1728048745031703410, 
-0.4386245608329773, -0.15490227937698364, 0.5084559828563542, 1728048745062718631, 
0.09934663772583008, -0.12724614143371582, 0.46629544577466747, 1728048745095115124, 
0.12508481740951538, 0.3370129466056824, 0.5519115115969006, 1728048745121539441, 
0.09020030498504639, -0.11330461502075195, 0.4996352374204781, 1728048745151454611, 
-0.21742063760757446, -0.09334278106689453, 0.4992672204830687, 1728048745181446245, 
-0.004427552223205566, 0.3747768998146057, 0.4965690536340097, 1728048745211366369, 
0.10255080461502075, 0.20068764686584473, 0.49260878513562006, 1728048745241333116, 
0.16437757015228271, -0.4668271541595459, 0.4919726607136358, 1728048745271327146, 
-0.15870434045791626, 0.3163260817527771, 0.47824724744336583, 1728048745303423838, 
-0.17603707313537598, 0.21149086952209473, 0.5209145148317155, 1728048745334003103, 
0.8900261521339417, -0.5682432651519775, 0.5659691942532736, 1728048745361118711, 
-0.2560291886329651, 0.6145774126052856, 0.49324779302377647, 1728048745391054734, 
0.20371121168136597, 0.4731762409210205, 0.5252893976219399, 1728048745420998141, 
-0.49093514680862427, -0.8797898888587952, 0.5320764011415253, 1728048745450943837, 
0.20484936237335205, 0.36319535970687866, 0.5212441887143211, 1728048745480938365, 
0.28936511278152466, 0.6925238966941833, 0.49100967622014435, 1728048745511018818, 
0.03616303205490112, -0.7752647399902344, 0.4604698633075282, 1728048745543034072, 
0.010814070701599121, -0.11556798219680786, 0.5534664908341955, 1728048745570889059, 
-0.2447185516357422, 1.1475296020507812, 0.5121235120053407, 1728048745600786580, 
0.42624884843826294, -0.3216239809989929, 0.4836703916616258, 1728048745630832587, 
-0.254281222820282, -0.6083878874778748, 0.4868417153853042, 1728048745660620786, 
0.35976916551589966, 0.7290135025978088, 0.4727516350145459, 1728048745690525414, 
0.07178992033004761, 0.17025279998779297, 0.47220242205903584, 1728048745720596433, 
0.23282784223556519, -0.3550068736076355, 0.4973576921079643, 1728048745751173135, 
-0.5221664905548096, 0.260007381439209, 0.4873283847093119, 1728048745782785800, 
0.6473515033721924, 0.24998700618743896, 0.5636594964988828, 1728048745810479696, 
-0.2759130001068115, -0.21703755855560303, 0.5125406577022891, 1728048745840367993, 
0.060708045959472656, -0.03022587299346924, 0.515844690445645, 1728048745870300263, 
0.13979274034500122, 0.34420883655548096, 0.5026823054975168, 1728048745900324955, 
0.0545232892036438, -0.16291111707687378, 0.4925972545298322, 1728048745930279774, 
0.09215956926345825, 0.15435266494750977, 0.5115694284609617, 1728048745959220674, 
-0.06806761026382446, 0.21475571393966675, 0.4667196161927074, 1728048745991062360, 
0.03914076089859009, -0.1733386516571045, 0.49003470420797524, 1728048746021789805, 
-0.11536186933517456, -0.35187816619873047, 0.5491057608689551, 1728048746049234094, 
0.0880480408668518, 0.21055138111114502, 0.4919308945968228, 1728048746080062307, 
0.16750621795654297, 0.6035580635070801, 0.520423050676831, 1728048746109914333, 
0.07315200567245483, -0.7160443067550659, 0.5270006354872232, 1728048746139992075, 
-0.15327197313308716, 0.2331780195236206, 0.5150030822283178, 1728048746169811084, 
0.14338427782058716, 0.7355632781982422, 0.5041885126465965, 1728048746199710275, 
-0.21438467502593994, -0.8317456245422363, 0.4603354608749929, 1728048746231006164, 
0.3454669713973999, -0.1399548053741455, 0.44067170843201975, 1728048746262988186, 
-0.29761844873428345, 1.0720807313919067, 0.574044835832159, 1728048746289612536, 
-0.13320481777191162, -0.6365243196487427, 0.5185312291889893, 1728048746319512489, 
-0.09664273262023926, -0.5491491556167603, 0.5204436842423621, 1728048746349487396, 
0.4524051547050476, 0.9020822644233704, 0.5096273663153321, 1728048746379434629, 
-0.2988971471786499, -0.017834246158599854, 0.5005940425454675, 1728048746409440646, 
0.01942145824432373, -0.6162211298942566, 0.5282785934617645, 1728048746439413337, 
0.16929638385772705, 0.535402238368988, 0.5049267515331144, 1728048746470786879, 
-0.465767502784729, 0.205497145652771, 0.4738389964666522, 1728048746501716589, 
0.012775719165802002, -0.5805544853210449, 0.5333925487442894, 1728048746529202111, 
-0.1898173689842224, 0.32557934522628784, 0.5050194896725635, 1728048746558081197, 
0.35663288831710815, 0.44585204124450684, 0.47904840669815174, 1728048746589072702, 
-0.022859632968902588, -0.5605994462966919, 0.5194570870678183, 1728048746619000614, 
-0.04844498634338379, -0.10564112663269043, 0.5036942407985474, 1728048746648917916, 
-0.38546425104141235, 0.42984819412231445, 0.48248467007373663, 1728048746678888294, 
0.32511311769485474, -0.201185941696167, 0.42992429288152645, 1728048746711432351, 
-0.29268431663513184, -0.21654731035232544, 0.49848008898649077, 1728048746740844291, 
0.5248738527297974, 0.34106504917144775, 0.5448662966589245, 1728048746768775981, 
-0.14365863800048828, 0.005238234996795654, 0.5160677231004117, 1728048746798695176, 
0.010499119758605957, -0.11946147680282593, 0.5050419589394497, 1728048746828641818, 
0.027239501476287842, 0.2624776363372803, 0.504911190686428, 1728048746858607510, 
-0.25101423263549805, -0.10004866123199463, 0.5155478153123683, 1728048746888814621, 
0.28911441564559937, -0.13071978092193604, 0.5436208746966207, 1728048746918805726, 
-0.011057257652282715, 0.5000752806663513, 0.501708615272109, 1728048746950818069, 
0.05915951728820801, 0.14654123783111572, 0.5542391958665077, 1728048746978468378, 
-0.23818397521972656, -0.702376127243042, 0.47898822911110894, 1728048747008367653, 
0.17994409799575806, 0.3377673029899597, 0.48672037961491266, 1728048747038305967, 
-0.36143261194229126, 0.3879556655883789, 0.5296704064723802, 1728048747067217398, 
0.048566341400146484, -0.761828601360321, 0.5012617350155534, 1728048747097230107, 
-0.17427462339401245, 0.1621413230895996, 0.47817144087290475, 1728048747128155667, 
0.23651814460754395, 0.8400092124938965, 0.4751286568218237, 1728048747159461817, 
-0.4214230179786682, -0.8315977454185486, 0.4814278134834391, 1728048747190797094, 
-0.036796391010284424, -0.044120848178863525, 0.569917502087769, 1728048747218064254, 
0.18341857194900513, 0.7849000096321106, 0.5196109403875712, 1728048747247917771, 
-0.42895203828811646, -0.6844013929367065, 0.4761759912147791, 1728048747277916104, 
0.6601192951202393, -0.4317530393600464, 0.4902969266495412, 1728048747307869341, 
-0.2746846675872803, 1.0205358266830444, 0.5222334895697626, 1728048747337829836, 
0.058350980281829834, -0.17252469062805176, 0.5018535753743485, 1728048747367815279, 
-0.2886871099472046, -0.788654625415802, 0.4881516423868872, 1728048747398873589, 
0.3785408139228821, 0.820570707321167, 0.4831386686003753, 1728048747430819649, 
-0.16200000047683716, 0.164145827293396, 0.578791459807475, 1728048747457718481, 
0.09757369756698608, -0.8243463039398193, 0.5080849639055959, 1728048747487693273, 
-0.22648119926452637, 0.22146189212799072, 0.5042517514187939, 1728048747517664642, 
0.2475498914718628, 0.5668094754219055, 0.4886485341695046, 1728048747547666220, 
-0.13645607233047485, -0.3405357003211975, 0.4635478091238887, 1728048747577543762, 
-0.36820369958877563, 0.01471102237701416, 0.47348149892044633, 1728048747607719881, 
0.04370623826980591, 0.45904290676116943, 0.4864320704981371, 1728048747639121531, 
-0.5311018228530884, -0.4685628414154053, 0.4910540962321007, 1728048747670068150, 
0.7076879739761353, 0.14075243473052979, 0.5542379949720566, 1728048747697513684, 
-0.12792044878005981, 0.3760703206062317, 0.5153237068964991, 1728048747727504101, 
-0.01239842176437378, -0.42442774772644043, 0.4979082588362485, 1728048747757517887, 
-0.05844801664352417, -0.03008037805557251, 0.5002754120402033, 1728048747787491573, 
0.03943741321563721, 0.4530370831489563, 0.48770910065437745, 1728048747817485394, 
-0.6213647723197937, -0.35149192810058594, 0.47829670793163886, 1728048747847519971, 
0.6589042544364929, -0.31993234157562256, 0.4895691634420029, 1728048747878856306, 
-0.1112871766090393, 0.8322489857673645, 0.5242149824546286, 1728048747908937606, 
-0.3039902448654175, -0.4682794213294983, 0.5456195586913132, 1728048747937422774, 
0.0452725887298584, -0.6438271403312683, 0.5121007265161229, 1728048747967398477, 
-0.08346819877624512, 1.122335433959961, 0.5055782448567149, 1728048747997397224, 
0.14457964897155762, 0.18389445543289185, 0.5379736653835344, 1728048748026604528, 
-0.3724358081817627, -1.1409863233566284, 0.49474624656399063, 1728048748056624137, 
0.4943218231201172, 0.5191398859024048, 0.4761391283662888, 1728048748087102615, 
-0.45849180221557617, 0.3552231788635254, 0.43452137628007187, 1728048748119932009, 
-0.21586912870407104, -0.954460084438324, 0.5217795838928636, 1728048748146522059, 
0.04158151149749756, 0.2901036739349365, 0.4993982048509111, 1728048748176521074, 
-0.0342828631401062, 0.6282742023468018, 0.5390601608869178, 1728048748206338712, 
-0.15538883209228516, -0.6489849090576172, 0.5143724195236187, 1728048748236314203, 
0.15436840057373047, -0.23931270837783813, 0.5198811114233537, 1728048748265239077, 
-0.12363952398300171, 0.7532957196235657, 0.45933384354034534, 1728048748296181781, 
0.13429254293441772, -0.321758508682251, 0.47020505006617747, 1728048748327011828, 
0.0873299241065979, -0.24282854795455933, 0.4880709335263004, 1728048748358855542, 
-0.4740503430366516, 0.4315573573112488, 0.5769133680156864, 1728048748386072322, 
0.09958618879318237, 0.08625751733779907, 0.5024395853234391, 1728048748415982024, 
-0.19766497611999512, -0.3401520252227783, 0.47954631792256436, 1728048748445937142, 
0.15290719270706177, 0.06466269493103027, 0.509048444067582, 1728048748475927297, 
-0.021944105625152588, 0.3728753924369812, 0.5197653082649731, 1728048748505838759, 
0.0641932487487793, -0.23986464738845825, 0.4979685021063944, 1728048748535769870, 
-0.15776681900024414, 0.11324286460876465, 0.45254627538279063, 1728048748567590822, 
-0.026160776615142822, -0.02815300226211548, 0.4715178533508431, 1728048748598947884, 
-0.3909342288970947, -0.03641641139984131, 0.5600473296063737, 1728048748625705793, 
0.45118749141693115, 0.16380703449249268, 0.505230918174986, 1728048748655593077, 
-0.12909173965454102, 0.08615660667419434, 0.47675266847666015, 1728048748685574067, 
-0.3654356598854065, -0.41970735788345337, 0.47506559827672257, 1728048748715473247, 
0.5836560726165771, 0.2784184217453003, 0.5137495724593607, 1728048748745447739, 
-0.402457594871521, 0.5057317614555359, 0.5097889031663475, 1728048748775418962, 
0.0475543737411499, -0.8176591992378235, 0.49667488092013073, 1728048748806988175, 
0.027297914028167725, 0.09017503261566162, 0.4906431475580454, 1728048748837791519, 
0.008557021617889404, 0.8731701970100403, 0.5494386249965156, 1728048748864361469, 
-0.42465031147003174, -0.7254884243011475, 0.4830901524401167, 1728048748895141253, 
0.24298560619354248, -0.5216256976127625, 0.494531926283057, 1728048748925129902, 
-0.25645267963409424, 1.019749641418457, 0.5215661144858729, 1728048748955092860, 
-0.02193164825439453, -0.2868255376815796, 0.5331153197084584, 1728048748984210787, 
-0.48512178659439087, -0.6335573196411133, 0.4770474836932672, 1728048749015755053, 
0.559546709060669, 0.373246967792511, 0.4965259234938673, 1728048749047023751, 
-0.3336363434791565, 0.2220194935798645, 0.5060506667993538, 1728048749077016292, 
0.24271535873413086, -0.3475101590156555, 0.5316051008249472, 1728048749104882517, 
0.1636594533920288, 0.17786532640457153, 0.518300934620746, 1728048749134799509, 
-0.35281193256378174, 0.32191747426986694, 0.5026818852646796, 1728048749164792819, 
0.06713426113128662, -0.2666013240814209, 0.4828287117294747, 1728048749194763283, 
-0.16226398944854736, -0.1275850534439087, 0.47914509984906095, 1728048749224968765, 
-0.06260508298873901, 0.07774633169174194, 0.5091895534001667, 1728048749255020712, 
-0.08983403444290161, 0.37216174602508545, 0.4898976982779978, 1728048749287017840, 
0.5318838953971863, -0.1496983766555786, 0.5581546109136654, 1728048749314702994, 
-0.036558568477630615, -0.07517403364181519, 0.5146984562261804, 1728048749344506980, 
0.057947635650634766, 0.27449846267700195, 0.5024141721705412, 1728048749374463375, 
-0.7277883887290955, -0.14813470840454102, 0.4859551564047827, 1728048749404352694, 
0.5730629563331604, -0.0285872220993042, 0.48783839092802195, 1728048749433311370, 
-0.24696248769760132, 0.06077444553375244, 0.4898044222790627, 1728048749463252936, 
-0.008573472499847412, -0.13907712697982788, 0.4622676698363713, 1728048749495323518, 
-0.17953801155090332, 0.18441396951675415, 0.4854262842202443, 1728048749527591883, 
0.05108898878097534, 0.13033723831176758, 0.6101386234334049, 1728048749553231770, 
-0.3634476065635681, -0.19047218561172485, 0.49878732095638695, 1728048749584040323, 
0.14566397666931152, -0.08344161510467529, 0.5062706043110581, 1728048749613985221, 
0.15427500009536743, 0.5439555644989014, 0.49073795720405305, 1728048749643906242, 
-0.4564153552055359, -0.3710165023803711, 0.4832074544113997, 1728048749673853450, 
0.27079451084136963, -0.4368382692337036, 0.48044947281615014, 1728048749703849810, 
-0.008558273315429688, 0.8250631093978882, 0.4638472604485007, 1728048749735048911, 
-0.304002046585083, 0.20937150716781616, 0.47893746366495055, 1728048749766447239, 
-0.5374432802200317, -0.8241804838180542, 0.579786493898417, 1728048749793749630, 
0.5258946418762207, 0.43024277687072754, 0.5409714821434995, 1728048749823627923, 
-0.3577500581741333, 0.3594183325767517, 0.5268433439567294, 1728048749853542230, 
0.1726323366165161, -0.7164645195007324, 0.5060750843697273, 1728048749883581221, 
-0.19027137756347656, 0.23300683498382568, 0.4884863878517173, 1728048749913454939, 
0.21682900190353394, 0.5936405062675476, 0.5000339926289302, 1728048749943402840, 
-0.38025081157684326, -0.39079195261001587, 0.45768697569003974, 1728048749975585820, 
-0.4549781084060669, -0.31986910104751587, 0.4877047012011071, 1728048750005821675, 
0.06393784284591675, 0.8541415929794312, 0.5403074503583905, 1728048750033340852, 
-0.38329946994781494, -0.3136087656021118, 0.5292912155438095, 1728048750062225350, 
0.5750988125801086, -0.3485506772994995, 0.5125599679439972, 1728048750093127691, 
-0.11557948589324951, 0.522697389125824, 0.5219420657881814, 1728048750123119032, 
-0.11255037784576416, 0.21420913934707642, 0.49554807270360807, 1728048750153105360, 
-0.4770964980125427, -0.5761675238609314, 0.49317406203184094, 1728048750183105529, 
0.2634512782096863, 0.13891881704330444, 0.48170273319085716, 1728048750215137206, 
-0.15142756700515747, 0.418491005897522, 0.538937084408175, 1728048750242986276, 
-0.02245354652404785, -0.291778564453125, 0.4821734805711724, 1728048750272874432, 
-0.3476554751396179, 0.1106041669845581, 0.49487385018168856, 1728048750302812997, 
0.4736044406890869, 0.1435486078262329, 0.512304917705594, 1728048750332800338, 
-0.3906975984573364, -0.07202577590942383, 0.5060880936951614, 1728048750362704766, 
-0.40665918588638306, 0.06882381439208984, 0.5145248052257203, 1728048750392654180, 
0.17307698726654053, 0.05308133363723755, 0.4869419257883828, 1728048750423691171, 
-0.7409126162528992, -0.2967667579650879, 0.47216881318190534, 1728048750455113147, 
0.7866550087928772, 0.16298836469650269, 0.5460413607833001, 1728048750482596772, 
-0.30261337757110596, 0.48829948902130127, 0.4898902316721096, 1728048750512471158, 
-0.13057368993759155, -0.3300971984863281, 0.4365415169342009, 1728048750535137208, 
-0.2836564779281616, -0.02821403741836548, 0.5639752486491412, 1728048750572367940, 
0.24162083864212036, 0.6907695531845093, 0.55369359779923, 1728048750601311190, 
-0.34081995487213135, -0.365295946598053, 0.5199387480054789, 1728048750632303428, 
0.396068274974823, -0.4876338839530945, 0.5078127149146651, 1728048750663190960, 
-0.39005738496780396, 0.7460237741470337, 0.4722399878916171, 1728048750695294384, 
-0.31473779678344727, 0.5493484139442444, 0.5280110390422201, 1728048750732059740, 
-0.5097615718841553, -0.17071771621704102, 0.40811127506284434, 1728048750762080403, 
0.6987724900245667, -0.2521759867668152, 0.4082301455485489, 1728048750791973666, 
0.16265869140625, 0.26733434200286865, 0.49498000075334053, 1728048750823108968, 
0.019552171230316162, 0.125263512134552, 0.49993020945357663, 1728048750855131995, 
-0.33744174242019653, -0.13573187589645386, 0.5635747314673978, 1728048750891794752, 
-0.12181812524795532, 0.11060947179794312, 0.5024484278307242, 1728048750921757442, 
-0.04208695888519287, 0.12678003311157227, 0.4740982106137034, 1728048750951745871, 
0.12349241971969604, -0.10365599393844604, 0.44030793947346325, 1728048750983092382, 
-0.19549977779388428, -0.06913650035858154, 0.4432005311977, 1728048751014916979, 
0.12662041187286377, -0.18450993299484253, 0.5191426087260657, 1728048751051531697, 
0.26794618368148804, 0.24254125356674194, 0.5057923200014925, 1728048751081528064, 
-0.5337251424789429, 0.2340206503868103, 0.5132111577295778, 1728048751111513070, 
0.1445884108543396, -0.10695147514343262, 0.4921643219735638, 1728048751143286351, 
-0.486802339553833, 0.017353415489196777, 0.5050759915400237, 1728048751173976277, 
0.7751030921936035, -0.1237075924873352, 0.5703991510050934, 1728048751201298241, 
-0.13298118114471436, 0.030334532260894775, 0.5386288301731172, 1728048751230228019, 
-0.27527016401290894, -0.25128173828125, 0.4373058603239421, 1728048751253255793, 
-0.13102227449417114, -0.27553123235702515, 0.5192539085330757, 1728048751291132258, 
-0.32018065452575684, -0.12518858909606934, 0.4816580441660719, 1728048751321132572, 
-0.43583017587661743, 0.6186028718948364, 0.46741588746686197, 1728048751351105965, 
0.10686516761779785, -0.29062384366989136, 0.4151591321786071, 1728048751383506143, 
-0.09198665618896484, -0.023398280143737793, 0.5488919225146679, 1728048751410935006, 
0.416401207447052, 0.5071832537651062, 0.5359316734978868, 1728048751440895417, 
-0.22107446193695068, -0.41242516040802, 0.5043733224187388, 1728048751470900194, 
-0.16763222217559814, -0.039704203605651855, 0.49435545961280947, 1728048751500763405, 
-0.22790944576263428, 0.6809705495834351, 0.5028938715400251, 1728048751530753650, 
-0.16303306818008423, -0.4158552885055542, 0.4977210211812426, 1728048751560732333, 
0.5656424760818481, -0.28341376781463623, 0.4836452651642106, 1728048751591319642, 
-0.291392982006073, 0.6142237186431885, 0.4744475398663254, 1728048751623045284, 
0.07323199510574341, 0.0399511456489563, 0.5496692644467961, 1728048751650567654, 
-0.4135071635246277, -0.3274041414260864, 0.5345543199776965, 1728048751680489992, 
0.07621592283248901, 0.22417831420898438, 0.5261667531204529, 1728048751710428977, 
-0.10503369569778442, 0.27384746074676514, 0.506311338447332, 1728048751739356404, 
0.04656189680099487, -0.4086228609085083, 0.4705122929191189, 1728048751770320012, 
-0.25804954767227173, 0.08259737491607666, 0.49116002183337876, 1728048751800307147, 
0.19239461421966553, 0.43291205167770386, 0.47496014848225204, 1728048751831489392, 
0.19944089651107788, -0.30233532190322876, 0.4683832830093177, 1728048751863085638, 
-0.5522180795669556, -0.07945191860198975, 0.5348613222320938, 1728048751890198921, 
0.1023600697517395, 0.3633207678794861, 0.48443588936418214, 1728048751920059467, 
-0.2912035584449768, -0.1305893063545227, 0.46734906837013607, 1728048751950048578, 
0.2256813645362854, -0.1649026870727539, 0.46386555491913717, 1728048751979992001, 
-0.34646594524383545, 0.33093369007110596, 0.45922288568868175, 1728048752009911223, 
-0.09613335132598877, -0.08325523138046265, 0.44970558673004685, 1728048752039915537, 
-0.19597429037094116, 0.23316442966461182, 0.40978470433935343, 1728048752071328045, 
0.8511087894439697, 0.051852524280548096, 0.4097077671175376, 1728048752103022720, 
0.6318438053131104, -0.1568899154663086, 0.5851127747867884, 1728048752129885892, 
-0.303896963596344, 0.44618791341781616, 0.5467698577841078, 1728048752159680346, 
0.16839218139648438, -0.06171846389770508, 0.45267347753768283, 1728048752183080025, 
-0.4839073419570923, 0.2840612530708313, 0.5792867966856914, 1728048752209699072, 
-0.4094811677932739, 0.3470565676689148, 0.5149276455390781, 1728048752239594676, 
0.3701707720756531, -0.4309059977531433, 0.4844695044959082, 1728048752269484398, 
-0.424216628074646, 0.2689725160598755, 0.49116613105768214, 1728048752299485237, 
0.18880122900009155, 0.4840092062950134, 0.5537939665740664, 1728048752328433520, 
-0.3121015429496765, -0.746834933757782, 0.5001108056712996, 1728048752358463240, 
0.5573068261146545, 0.13843929767608643, 0.4262742356492539, 1728048752391347110, 
-0.2543078660964966, 0.9199275970458984, 0.49716337166300695, 1728048752420224167, 
-0.31882286071777344, -0.7387679219245911, 0.5216341873498361, 1728048752448307537, 
-0.21420735120773315, -0.7248507738113403, 0.5245484472124207, 1728048752478419317, 
0.2526699900627136, 0.1904885172843933, 0.5259824687570468, 1728048752508316062, 
-0.4874286651611328, 0.8982735872268677, 0.47389417203233697, 1728048752539077626, 
-0.016407132148742676, -0.6243937611579895, 0.49591905129421027, 1728048752569184776, 
-0.24364721775054932, -0.11359047889709473, 0.5093305613822463, 1728048752599801219, 
0.0003701448440551758, 0.8260517716407776, 0.4819229943963247, 1728048752630228016, 
-0.6040347814559937, -0.3284900188446045, 0.5020714039299293, 1728048752658907646, 
0.08197677135467529, -0.16286230087280273, 0.49392194086390917, 1728048752688819727, 
-0.11778193712234497, 0.5400508642196655, 0.531635930090155, 1728048752718778966, 
-0.5516952276229858, -0.13013851642608643, 0.5170292195417242, 1728048752748710924, 
0.12338113784790039, -0.2591712474822998, 0.496227958473584, 1728048752778649015, 
-0.07066720724105835, 0.29791581630706787, 0.48918262340111324, 1728048752808604282, 
0.22563999891281128, 0.3775719404220581, 0.46795617123159616, 1728048752839138192, 
-0.00370180606842041, -0.19513392448425293, 0.44536525473052124, 1728048752871452707, 
0.05808049440383911, -0.058327674865722656, 0.5730614088327726, 1728048752897491763, 
-0.8490309119224548, 0.3439061641693115, 0.48326968619897837, 1728048752928421016, 
0.5639110803604126, -0.231562077999115, 0.5052760089327586, 1728048752958284602, 
-0.41608476638793945, -0.07819610834121704, 0.5195456065588704, 1728048752988276506, 
0.4975104331970215, 0.2722012996673584, 0.517202186343852, 1728048753018387190, 
-0.43123602867126465, -0.07225590944290161, 0.49042313903586415, 1728048753048185516, 
0.08784794807434082, -0.028744995594024658, 0.4656106645865839, 1728048753079185006, 
-0.17075461149215698, 0.7285347580909729, 0.4510136500614257, 1728048753111738073, 
-0.3179798126220703, -0.3978092670440674, 0.5709995667675879, 1728048753138088213, 
0.14954322576522827, -0.1514638066291809, 0.5282552953610024, 1728048753168052621, 
-0.1974809765815735, 0.9631105661392212, 0.5165939554556682, 1728048753198028236, 
-0.3497462272644043, -0.24293464422225952, 0.4884135086106087, 1728048753228039110, 
0.11115026473999023, -0.5522811412811279, 0.48415419233990903, 1728048753258270133, 
0.23290812969207764, 0.8769350051879883, 0.5352992781850514, 1728048753288049102, 
-0.48745912313461304, -0.030349433422088623, 0.4941454108535694, 1728048753319156462, 
0.20947575569152832, -0.74101322889328, 0.45551876463838636, 1728048753350746293, 
-0.09906524419784546, 0.6910808086395264, 0.5379277851806961, 1728048753377826650, 
0.16528576612472534, 0.4944106340408325, 0.5015587470005635, 1728048753407801183, 
0.7168458700180054, 0.14528286457061768, 0.4426067376224983, 1728048753430694250, 
-0.3295438289642334, 0.7232633829116821, 0.5775042519208633, 1728048753457888369, 
-0.13526499271392822, -0.3985009789466858, 0.5033814873731084, 1728048753487811454, 
-0.12875694036483765, -0.19594639539718628, 0.502859593573345, 1728048753517787173, 
0.5807939171791077, 0.9353430271148682, 0.5069723707364311, 1728048753547806941, 
-0.27714353799819946, -0.17950928211212158, 0.4966650321223003, 1728048753577785207, 
0.5046729445457458, -0.44536155462265015, 0.5195318263210016, 1728048753607831608, 
-0.454878568649292, 0.519905686378479, 0.48737712348155493, 1728048753639191632, 
0.12076246738433838, 0.19748765230178833, 0.4886349914311188, 1728048753669153351, 
-0.15516602993011475, -0.32471078634262085, 0.5091669143279469, 1728048753697670977, 
-0.15564531087875366, 0.19951379299163818, 0.4975542499506931, 1728048753727680738, 
-0.12604504823684692, 0.3367878794670105, 0.5514580274596116, 1728048753756971186, 
-0.20038920640945435, -0.29435449838638306, 0.5292019155035936, 1728048753786953980, 
0.46598362922668457, 0.345846951007843, 0.5022401545814839, 1728048753816926857, 
-0.1825042963027954, 0.2291412353515625, 0.47957513790801765, 1728048753847536333, 
-0.19362884759902954, -0.2958671450614929, 0.4577949209670624, 1728048753879545415, 
-0.14019209146499634, 0.3129346966743469, 0.5510342480951025, 1728048753906759687, 
0.33169639110565186, 0.4680883288383484, 0.48752147559035286, 1728048753936811921, 
-0.8021882772445679, -0.5710631012916565, 0.4817030358340167, 1728048753966644087, 
0.5850792527198792, 0.003419220447540283, 0.49571593578777734, 1728048753996529371, 
-0.26518452167510986, 0.8126958012580872, 0.5436842183286622, 1728048754026554318, 
-0.17952948808670044, -0.44586992263793945, 0.5764715189374938, 1728048754055528618, 
0.03651309013366699, -0.3820232152938843, 0.5109130630112487, 1728048754087343129, 
0.11416494846343994, 0.9710851311683655, 0.4688522210996472, 1728048754119172344, 
-0.3992292284965515, -0.09650832414627075, 0.5213001754686749, 1728048754146419882, 
0.17421388626098633, -0.8814040422439575, 0.47819140215528705, 1728048754176278977, 
0.2399006485939026, 1.097619891166687, 0.48382495432967865, 1728048754206365006, 
-0.4750441908836365, 0.21557611227035522, 0.49889375113715195, 1728048754236168706, 
-0.06283807754516602, -0.8646193146705627, 0.5049462107965271, 1728048754266147833, 
-0.05095583200454712, 0.6962342262268066, 0.5110950778488145, 1728048754296113399, 
0.0031369924545288086, 0.5779149532318115, 0.5011141147019221, 1728048754327701696, 
-0.3264705538749695, -0.7487322092056274, 0.4821725899734005, 1728048754359183415, 
0.4630813002586365, 0.1147909164428711, 0.5642372867330904, 1728048754385995143, 
-0.16767126321792603, 0.653727650642395, 0.4847848993506388, 1728048754415891696, 
0.0008677840232849121, -0.3389262557029724, 0.46187164844647877, 1728048754445829689, 
-0.35228681564331055, -0.1836187243461609, 0.4757510639683599, 1728048754475812340, 
-0.053675293922424316, 0.6088733673095703, 0.49221540564308125, 1728048754505899670, 
-0.3588404655456543, 0.04881024360656738, 0.5024902776019466, 1728048754535703429, 
0.3133605122566223, -0.36385107040405273, 0.47930958590869005, 1728048754567418677, 
0.09853678941726685, 0.6258973479270935, 0.5310800560323716, 1728048754598314383, 
-0.2749061584472656, 0.14263904094696045, 0.5888539266431674, 1728048754625559033, 
-0.04059493541717529, -0.4801716208457947, 0.4892151243476118, 1728048754655494634, 
-0.2671022415161133, 0.5792534351348877, 0.47358363790068764, 1728048754685399381, 
0.3533148765563965, 0.2660566568374634, 0.4858880724857284, 1728048754715376780, 
-0.35716116428375244, -0.40183699131011963, 0.4957084431978195, 1728048754745317838, 
0.14263606071472168, 0.47673892974853516, 0.4856129441779282, 1728048754775924718, 
-0.2122420072555542, 0.2178296446800232, 0.46983366832806045, 1728048754807347623, 
-0.2472323179244995, -0.6216553449630737, 0.5004416115902357, 1728048754837288896, 
0.2007765769958496, 0.5241589546203613, 0.5583969128669314, 1728048754865124889, 
0.09831929206848145, 0.49735307693481445, 0.5188048060260373, 1728048754895095464, 
-0.23677462339401245, -0.5936551690101624, 0.4896042470035547, 1728048754925006069, 
-0.17250311374664307, 0.017293334007263184, 0.4975410014219424, 1728048754954995290, 
0.299846887588501, 0.8986676335334778, 0.5240568073563032, 1728048754984956912, 
-0.38433748483657837, -0.40129774808883667, 0.5214173816054251, 1728048755015344308, 
0.2187201976776123, -0.3215827941894531, 0.486950531598463, 1728048755047303980, 
-0.15956783294677734, 0.7372464537620544, 0.5616852222609775, 1728048755074860547, 
0.26860398054122925, -0.1174059510231018, 0.5244010141241296, 1728048755104759716, 
-0.23607325553894043, -0.22157126665115356, 0.5073849850136956, 1728048755134693023, 
0.10217589139938354, 0.3329472541809082, 0.5030761573889384, 1728048755164604786, 
-0.21676278114318848, 0.06390851736068726, 0.49563752711265463, 1728048755194613803, 
0.09977918863296509, -0.17554473876953125, 0.48628164216907105, 1728048755224477805, 
-0.2072467803955078, 0.10673403739929199, 0.46564345354760517, 1728048755255393493, 
-0.05032533407211304, 0.2042410969734192, 0.44344091953185116, 1728048755287917258, 
-0.1930629014968872, 0.0638306736946106, 0.5213763503408141, 1728048755314437355, 
-0.024091899394989014, 0.005457699298858643, 0.4941106892269799, 1728048755344336679, 
0.21824133396148682, 0.2096632719039917, 0.531064060088801, 1728048755374292432, 
-0.19633471965789795, 0.20474165678024292, 0.5453978852980593, 1728048755403218631, 
0.09737592935562134, -0.15590709447860718, 0.4756669237934185, 1728048755434207640, 
-0.2536047101020813, 0.1002579927444458, 0.4845800960247075, 1728048755464092178, 
0.47419601678848267, 0.27174121141433716, 0.48527384679613356, 1728048755495377185, 
-0.056734442710876465, -0.04867607355117798, 0.4639382732407831, 1728048755527361341, 
-0.14465755224227905, 0.3017350435256958, 0.5353388853895381, 1728048755554017018, 
-0.22176069021224976, -0.08758264780044556, 0.46444441703686895, 1728048755583940763, 
-0.08758550882339478, -0.1943138837814331, 0.4925695576098319, 1728048755613899522, 
-0.20937621593475342, 0.40087080001831055, 0.5342321995396074, 1728048755643786878, 
0.2825546860694885, -0.1363498568534851, 0.5286989865933316, 1728048755673789435, 
-0.31523770093917847, -0.13971269130706787, 0.49951567150660703, 1728048755703943364, 
0.12501555681228638, 0.5695555806159973, 0.4639099641786425, 1728048755736096249, 
0.07620227336883545, -0.04868924617767334, 0.5108434495030959, 1728048755765213569, 
-0.46175873279571533, -0.18049579858779907, 0.5174689237483966, 1728048755793687993, 
0.007762908935546875, -0.05543684959411621, 0.5046025901444732, 1728048755823804245, 
-0.3983270525932312, 0.8502501249313354, 0.5039497988942857, 1728048755853625385, 
0.1987537145614624, -0.17075109481811523, 0.5115687697849701, 1728048755883516393, 
-0.35951411724090576, -0.5298638343811035, 0.5198796452004423, 1728048755913383818, 
0.44310683012008667, 0.732292890548706, 0.5140118970548411, 1728048755943402942, 
0.013881504535675049, 0.12436389923095703, 0.4707305168889899, 1728048755975513468, 
-0.21077364683151245, -0.4493493437767029, 0.5522394542120846, 1728048756002246149, 
-0.20007020235061646, 0.3514256477355957, 0.4731710484237291, 1728048756033199968, 
0.05408602952957153, 0.47705531120300293, 0.514902437448609, 1728048756073094444, 
-0.239906907081604, 0.4055304527282715, 0.5007551238852969, 1728048756103303747, 
-0.1623249053955078, -0.5284073948860168, 0.4758149297548411, 1728048756135477654, 
0.06036096811294556, 0.30472123622894287, 0.5540448072806884, 1728048756162965407, 
0.46331822872161865, 0.35363584756851196, 0.4872007242526776, 1728048756192936099, 
-0.447629451751709, -0.2811027765274048, 0.48112328346967187, 1728048756222835163, 
0.4881832003593445, 0.18848317861557007, 0.4796339904513383, 1728048756252814749, 
-0.2901144027709961, 0.45327228307724, 0.4891734638722212, 1728048756282775744, 
0.10818767547607422, -0.2457706332206726, 0.4945145582306662, 1728048756312878100, 
-0.010534882545471191, 0.08342063426971436, 0.5111230227785571, 1728048756342410541, 
-0.0011346936225891113, 0.44188421964645386, 0.45443442930835354, 1728048756376053014, 
-0.37311965227127075, -0.1891685128211975, 0.5810182271929737, 1728048756402583159, 
0.46513187885284424, 0.2037152647972107, 0.524306678771877, 1728048756432489729, 
0.25855815410614014, 0.355583131313324, 0.5250464052608214, 1728048756462476790, 
-0.4937554597854614, -0.1127365231513977, 0.4917329804777446, 1728048756492388414, 
0.272006630897522, 0.015199065208435059, 0.5017461091279256, 1728048756522314497, 
-0.19268357753753662, 0.31962448358535767, 0.49145720714043983, 1728048756552321005, 
0.24965029954910278, -0.06867307424545288, 0.48556665043365355, 1728048756583302648, 
-0.4767504334449768, -0.271148145198822, 0.47043714342012305, 1728048756615544911, 
0.698237419128418, 0.5724411606788635, 0.5636731029424903, 1728048756642128371, 
-0.47707420587539673, -0.011131823062896729, 0.5134223550847217, 1728048756672075894, 
-0.3026931881904602, -0.6297707557678223, 0.5305022150842694, 1728048756702005292, 
0.2555236220359802, 0.7217666506767273, 0.5176231726381831, 1728048756732039651, 
0.2541193962097168, 0.6320701241493225, 0.5114481974133194, 1728048756761918471, 
-0.02983957529067993, -0.9081740975379944, 0.49473640261022256, 1728048756791901894, 
-0.18172138929367065, 0.4242127537727356, 0.44765773907501666, 1728048756823747547, 
0.24295318126678467, 0.8442460298538208, 0.4781324580878786, 1728048756854033599, 
-0.5621161460876465, -0.6965368986129761, 0.5119896309096231, 1728048756881699291, 
0.5036075115203857, -0.17704731225967407, 0.5026243036252663, 1728048756911701594, 
-0.4823729991912842, -0.10200655460357666, 0.5058297800484887, 1728048756933751976, 
0.014779925346374512, -0.23883843421936035, 0.5617802678413153, 1728048756971592623, 
-0.847329318523407, -0.24929344654083252, 0.5045732960192508, 1728048757001562178, 
0.856751024723053, 0.6514210104942322, 0.4915854875476061, 1728048757031494839, 
-0.33965152502059937, 0.07015782594680786, 0.4496220464100498, 1728048757063453025, 
0.05362415313720703, -0.2243790626525879, 0.5162251169516099, 1728048757091495573, 
0.048698365688323975, 0.19567763805389404, 0.4870276094854894, 1728048757121295223, 
-0.10884749889373779, 0.3534225821495056, 0.47272962330709883, 1728048757151278089, 
-0.3113025426864624, -0.07691174745559692, 0.5154103945550749, 1728048757180210158, 
-0.003441929817199707, 0.03442305326461792, 0.4993636022849831, 1728048757211153118, 
0.28639787435531616, 0.3102537989616394, 0.5350421589026454, 1728048757241105159, 
-0.24261724948883057, -0.03743743896484375, 0.49803925282957323, 1728048757272026321, 
0.2736033797264099, 0.0783204436302185, 0.45289885833635074, 1728048757303611522, 
-0.23735004663467407, 0.1518266201019287, 0.5088318933825612, 1728048757331113866, 
0.21606695652008057, -0.004400730133056641, 0.49882558658915593, 1728048757360963322, 
-0.725561261177063, 0.1689293384552002, 0.5101941807140165, 1728048757390860149, 
0.5559535026550293, 0.1641218662261963, 0.5246539896714454, 1728048757420845373, 
-0.512121319770813, -0.2784727215766907, 0.5167004705838527, 1728048757450770903, 
0.3646574020385742, 0.03911060094833374, 0.5018326356359275, 1728048757481000373, 
0.09339970350265503, 0.6495282649993896, 0.5046882965604323, 1728048757511296067, 
-0.04291975498199463, -0.4218425154685974, 0.4776130952154107, 1728048757543345315, 
-0.15413576364517212, -0.22389912605285645, 0.5607409629590288, 1728048757570627924, 
0.21142441034317017, 1.0477066040039062, 0.4737397441219166, 1728048757600560908, 
-0.0020849108695983887, -0.17657870054244995, 0.48142571555511365, 1728048757630450653, 
-0.3195260167121887, -0.7345588207244873, 0.49393350840018574, 1728048757660401818, 
0.4191542863845825, 0.9044764041900635, 0.49551357038833377, 1728048757690385366, 
-0.502720296382904, -0.03535354137420654, 0.5099020705555245, 1728048757720302332, 
0.30862492322921753, -0.7061690092086792, 0.49782979736932154, 1728048757751659551, 
-0.5415067076683044, 0.5863562226295471, 0.48452926852970796, 1728048757783791816, 
0.4587442874908447, 0.2564901113510132, 0.5954784706134983, 1728048757810204269, 
-0.2609524130821228, -0.441567063331604, 0.48485977918155604, 1728048757840120797, 
-0.4263680577278137, 0.06521975994110107, 0.4935838330126373, 1728048757870059621, 
0.46444159746170044, 0.7031871676445007, 0.49623335677536257, 1728048757899990476, 
-0.2190244197845459, -0.1878650188446045, 0.48126440852728075, 1728048757930000640, 
-0.2363874912261963, -0.20298653841018677, 0.5019956429531416, 1728048757959926563, 
-0.0960698127746582, 0.39392489194869995, 0.48761238170483084, 1728048757991636749, 
0.48103219270706177, 0.0891115665435791, 0.49245217588397217, 1728048758022483344, 
-0.22348052263259888, -0.18059521913528442, 0.5524287315514582, 1728048758049766731, 
0.3030032515525818, 0.2383098602294922, 0.5113264227964546, 1728048758078674539, 
-0.33039534091949463, 0.24326622486114502, 0.4849714277267252, 1728048758109660226, 
0.14284664392471313, -0.2113592028617859, 0.5132176730496878, 1728048758139579710, 
-0.7234789133071899, 0.3902766704559326, 0.49940469952570327, 1728048758169569087, 
0.5467216968536377, -0.07489025592803955, 0.49244874765358543, 1728048758199683610, 
-0.1255616545677185, -0.17911213636398315, 0.4608261446279017, 1728048758231787095, 
-0.5333458185195923, 0.28143322467803955, 0.5121150244944642, 1728048758261438361, 
0.5309076905250549, 0.20195621252059937, 0.5287466502139817, 1728048758289439830, 
-0.4088172912597656, -0.28577864170074463, 0.5022284455306751, 1728048758318315926, 
0.518344521522522, 0.4531939625740051, 0.5069867039312539, 1728048758349369412, 
-0.3771136403083801, 0.1627744436264038, 0.5475162431809335, 1728048758378273912, 
0.18461531400680542, -0.49803733825683594, 0.4905680190289498, 1728048758409173312, 
-0.19836539030075073, 0.3964518904685974, 0.5027995000673109, 1728048758439444119, 
0.2039273977279663, 0.6229429244995117, 0.45953881387575257, 1728048758471405849, 
-0.46485424041748047, -0.7139434218406677, 0.5518932617951425, 1728048758499048340, 
0.7659628987312317, -0.1660810112953186, 0.5292519225957243, 1728048758528994448, 
-0.7154780030250549, 0.9403730630874634, 0.5106179682864243, 1728048758558886620, 
0.26738083362579346, -0.6925391554832458, 0.5044431121415939, 1728048758588842421, 
-0.028379201889038086, -0.32126080989837646, 0.47829205655896806, 1728048758618786010, 
-0.17241579294204712, 1.1131658554077148, 0.4873428180153491, 1728048758648794000, 
0.07646918296813965, -0.22072434425354004, 0.5068631744254679, 1728048758680074178, 
-0.17264163494110107, -0.47852522134780884, 0.4875088679070615, 1728048758711460347, 
-0.04857832193374634, 0.7753437757492065, 0.5530573753957957, 1728048758738648026, 
-0.2874734401702881, -0.03908896446228027, 0.49714231522969077, 1728048758768547371, 
0.21701180934906006, -0.5898884534835815, 0.49434317655722193, 1728048758798512146, 
-0.24940353631973267, 0.4855976104736328, 0.5240120555508466, 1728048758828447492, 
0.253410279750824, 0.1851271390914917, 0.5222171200652875, 1728048758858362506, 
-0.5501463413238525, -0.3847668766975403, 0.48565455570181015, 1728048758888420768, 
0.6255748271942139, 0.02527529001235962, 0.4709780293804878, 1728048758919426188, 
-0.583267092704773, 0.23485255241394043, 0.46508378875283324, 1728048758951457314, 
-0.053102970123291016, -0.18427449464797974, 0.5482972665866194, 1728048758978414058, 
-0.07676076889038086, -0.10745495557785034, 0.5066161003210093, 1728048759008384294, 
-0.4740464687347412, 0.4630969762802124, 0.49913737250113704, 1728048759038362881, 
1.0017647743225098, -0.19513559341430664, 0.4848569902625871, 1728048759068312502, 
-0.4571465849876404, -0.3556883931159973, 0.4777111414730249, 1728048759098551714, 
0.709147036075592, 0.26687270402908325, 0.5156439633295039, 1728048759128490315, 
0.4585089683532715, 0.19077998399734497, 0.49789496379053705, 1728048759159482556, 
-0.3767436146736145, -0.27875131368637085, 0.48123493997307315, 1728048759189231124, 
-0.1692168116569519, 0.20574676990509033, 0.5200389271922009, 1728048759217225998, 
-0.08600908517837524, 0.4985352158546448, 0.5249699514170614, 1728048759247213800, 
-0.1852046251296997, -0.579346776008606, 0.5153099901191159, 1728048759278147695, 
0.2743375897407532, -0.23971432447433472, 0.5320132245526826, 1728048759308076567, 
-0.14058321714401245, 0.9966187477111816, 0.5013769984497105, 1728048759338090020, 
1.0303720235824585, -0.3310816287994385, 0.5027901986214378, 1728048759368118027, 
-0.23469030857086182, -0.41906946897506714, 0.47745554988780115, 1728048759399470658, 
-0.3520812392234802, 0.9912551045417786, 0.4754795866950206, 1728048759429627686, 
0.06428474187850952, -0.14791607856750488, 0.4985792054832624, 1728048759458007236, 
-0.2652794122695923, -0.7813575863838196, 0.49425126837503935, 1728048759488016756, 
0.2690422534942627, 1.014919400215149, 0.500151323477256, 1728048759517960028, 
0.027539074420928955, 0.10186761617660522, 0.5227901138732891, 1728048759547201810, 
-0.21075427532196045, -0.7235162854194641, 0.517530703278118, 1728048759576240791, 
-0.005734562873840332, 0.3308480381965637, 0.49359707088305804, 1728048759607545887, 
0.12167853116989136, 0.4627695083618164, 0.48736032473042695, 1728048759639934989, 
-0.15135151147842407, -0.5240576267242432, 0.5290745800365255, 1728048759667124921, 
0.10044926404953003, 0.007509052753448486, 0.4899266200865704, 1728048759697028064, 
-0.6702831983566284, 0.4486429691314697, 0.5195786734985544, 1728048759727004433, 
0.9354417324066162, -0.2667512893676758, 0.5183015959338301, 1728048759756897492, 
-0.17476153373718262, -0.15570557117462158, 0.5051375621086939, 1728048759786881843, 
-0.46232861280441284, 0.5967010259628296, 0.5050740408764329, 1728048759815795640, 
-0.11983811855316162, -0.09590327739715576, 0.4835680441751089, 1728048759847594442, 
-0.14217793941497803, -0.36346572637557983, 0.4887511783507364, 1728048759879808937, 
0.07408076524734497, 0.46511876583099365, 0.5495699030017587, 1728048759906662542, 
0.531000018119812, 0.024555623531341553, 0.48864330025324215, 1728048759936612983, 
-0.000949859619140625, -0.39732688665390015, 0.4860872753191546, 1728048759966534189, 
-0.5250092148780823, 0.4375603199005127, 0.4740981818353294, 1728048759996855316, 
0.017531096935272217, 0.11702871322631836, 0.49321056311534683, 1728048760026473961, 
-0.5353513360023499, -0.7470192909240723, 0.49452125750928144, 1728048760056412350, 
1.040765643119812, 0.5935443043708801, 0.5011764536822916, 1728048760087243939, 
-0.7673250436782837, 0.30254656076431274, 0.49469233326922646, 1728048760119566469, 
0.25768226385116577, -0.8628206253051758, 0.5902598767772907, 1728048760146299620, 
0.07509613037109375, 0.38263195753097534, 0.5516326418170259, 1728048760175237470, 
-0.3131778836250305, 0.647125244140625, 0.48192738873724666, 1728048760206124511, 
0.32978296279907227, -0.8299394845962524, 0.4920045816056617, 1728048760236102118, 
0.255495548248291, 0.015652179718017578, 0.5151331492253275, 1728048760266041167, 
-0.062190234661102295, 1.161981225013733, 0.49158953902202646, 1728048760296021090, 
-0.23531478643417358, -1.1662266254425049, 0.4546865153902096, 1728048760327865389, 
0.22080588340759277, -0.21686041355133057, 0.47634570619016786, 1728048760358735029, 
-0.25094687938690186, 1.3056433200836182, 0.5911135419785217, 1728048760384878714, 
0.18580365180969238, -0.5272935032844543, 0.5324352498875033, 1728048760415773085, 
-0.13896751403808594, -0.7471190094947815, 0.5229299413433197, 1728048760445710882, 
0.284249484539032, 0.7734227180480957, 0.4773115410598691, 1728048760475715803, 
-0.7365801334381104, -0.12075448036193848, 0.4736561225592163, 1728048760505608146, 
0.3610225319862366, -0.6080541610717773, 0.469489047084884, 1728048760535230953, 
-0.1129446029663086, 0.3981713056564331, 0.47155049227848034, 1728048760567585893, 
-0.20790696144104004, 0.24823808670043945, 0.5467672057684645, 1728048760595525650, 
0.20932257175445557, -0.38973182439804077, 0.5019562155750543, 1728048760625463464, 
0.16555196046829224, 0.1192217469215393, 0.5024716653619459, 1728048760655383773, 
-0.16119283437728882, 0.546357274055481, 0.510298693849393, 1728048760685308474, 
0.15614616870880127, -0.26377373933792114, 0.5157460878371806, 1728048760715356182, 
0.3069353699684143, -0.2728484272956848, 0.5178138053789062, 1728048760745197397, 
-0.522061824798584, 0.637988269329071, 0.46856628753053786, 1728048760776122113, 
0.38624900579452515, -0.38518887758255005, 0.4451965182800159, 1728048760807547858, 
-0.14227008819580078, -0.40421342849731445, 0.5257199854346389, 1728048760835175910, 
0.06710124015808105, 0.6285932064056396, 0.5026761710332994, 1728048760865050399, 
-0.6588218212127686, -0.10809099674224854, 0.5204340412576574, 1728048760895057083, 
0.1571757197380066, -0.34040242433547974, 0.5128085274926094, 1728048760924887185, 
0.04086923599243164, 0.5378111600875854, 0.49716701475536496, 1728048760954912636, 
-0.037299156188964844, -0.20279443264007568, 0.4993121396859437, 1728048760984840600, 
0.17691713571548462, -0.26646625995635986, 0.48137091303134766, 1728048761015713760, 
0.0774431824684143, 0.6217682361602783, 0.4663374962387312, 1728048761048176713, 
-0.3333700895309448, 0.0826367735862732, 0.5589001213464354, 1728048761074771554, 
-0.017523586750030518, -0.5977005958557129, 0.4957316165636662, 1728048761104602942, 
0.5257108211517334, 0.3296089172363281, 0.5101471088731059, 1728048761134791514, 
-0.6355322599411011, 0.4024202823638916, 0.4870559786337455, 1728048761164512516, 
0.3456467390060425, -0.7169075012207031, 0.5049543687050694, 1728048761194468069, 
-0.13714295625686646, 0.3067704439163208, 0.53233635323616, 1728048761224456298, 
0.3470149040222168, 0.7203767895698547, 0.500383690835212, 1728048761255773446, 
-0.7390550374984741, -0.6600056886672974, 0.479083380500878, 1728048761287738710, 
0.37946557998657227, -0.25073665380477905, 0.56281457319796, 1728048761314381481, 
-0.13198435306549072, 0.6047272682189941, 0.5251869954193172, 1728048761343249548, 
-0.15931057929992676, -0.4177420735359192, 0.47131973874125505, 1728048761374162448, 
0.25912582874298096, -0.1954861283302307, 0.46487780499480036, 1728048761404185352, 
-0.09746414422988892, 0.4422794580459595, 0.5020152957689273, 1728048761434067468, 
-0.00033992528915405273, -0.04630202054977417, 0.5056805872851375, 1728048761464033168, 
-0.5028517246246338, -0.14841800928115845, 0.4637454899667665, 1728048761496206329, 
0.4500446319580078, 0.2859383225440979, 0.5175801642637302, 1728048761525875855, 
-0.4395187497138977, -0.014131128787994385, 0.5401538237446046, 1728048761553918987, 
0.35592710971832275, -0.22066998481750488, 0.4860813753971714, 1728048761583860833, 
-0.11109483242034912, -0.0041435956954956055, 0.5036928854243107, 1728048761613751248, 
-0.045918166637420654, 0.15873479843139648, 0.5004181313572508, 1728048761643707188, 
-0.5802395939826965, -0.0694621205329895, 0.510522306075289, 1728048761673799912, 
0.1917172074317932, -0.03562968969345093, 0.5276703197796574, 1728048761703826770, 
-0.2301977276802063, 0.011114954948425293, 0.4992364935100474, 1728048761735810396, 
-0.1711321473121643, -0.17525255680084229, 0.5678007946496485, 1728048761763566637, 
0.08921360969543457, -0.032283008098602295, 0.5001614586838096, 1728048761793452441, 
-0.04282182455062866, 0.5311034917831421, 0.4839705837172753, 1728048761823397469, 
-0.15646368265151978, -0.21719688177108765, 0.4615230959753744, 1728048761853362929, 
-0.20800215005874634, -0.10817945003509521, 0.4623011006766262, 1728048761883310493, 
0.3424285650253296, 0.5420278310775757, 0.49968527989270634, 1728048761913289142, 
-0.6756457090377808, -0.37227731943130493, 0.48879118895895546, 1728048761944002906, 
0.5019838213920593, -0.2922729253768921, 0.46735109165679967, 1728048761976017106, 
-0.00419992208480835, 0.7015929222106934, 0.5869817464774367, 1728048762003207024, 
0.3449608087539673, -0.25168025493621826, 0.5138117348179729, 1728048762033091408, 
-0.5391404628753662, -0.5258572697639465, 0.4884591358297637, 1728048762063005330, 
-0.1225433349609375, 0.7314170002937317, 0.48868532128836617, 1728048762092974849, 
-0.0903782844543457, 0.2603728771209717, 0.5137726669082333, 1728048762121909327, 
-0.21292269229888916, -0.7571813464164734, 0.49037099352124747, 1728048762152866522, 
0.2706448435783386, 0.25340956449508667, 0.5111686466857921, 1728048762183611876, 
-0.26165443658828735, 0.5842506885528564, 0.4903370428871854, 1728048762215865769, 
-0.17750269174575806, -0.5104387402534485, 0.5684710892105559, 1728048762242758546, 
-0.24900764226913452, -0.02881854772567749, 0.48681422659262624, 1728048762272766719, 
0.4816821813583374, 0.5145744681358337, 0.4997961289974309, 1728048762303207071, 
-0.14104145765304565, -0.17401784658432007, 0.5230047682730624, 1728048762332245770, 
-0.005949199199676514, -0.09365463256835938, 0.4647502883402054, 1728048762363449712, 
-0.11050653457641602, -0.3362170457839966, 0.4620385346271435, 1728048762393299957, 
-0.06836038827896118, 0.22924089431762695, 0.4556600831262246, 1728048762423612533, 
-0.04053604602813721, 0.2841634750366211, 0.4740906644360125, 1728048762454726806, 
0.8043878078460693, -0.13076096773147583, 0.5612861465383961, 1728048762482386611, 
-0.6173638701438904, 0.2993146777153015, 0.5403986836273328, 1728048762512289263, 
-0.036492228507995605, -0.32601749897003174, 0.5411615475309716, 1728048762541216246, 
-0.0659676194190979, -0.21063131093978882, 0.47319306400507344, 1728048762572120206, 
-0.44194042682647705, 0.36122608184814453, 0.49469303848774804, 1728048762602186525, 
0.3172866702079773, 0.006994426250457764, 0.4934685706375018, 1728048762632070482, 
-0.0917891263961792, -0.3582794666290283, 0.45901460045654163, 1728048762663644113, 
0.06617623567581177, 0.4968496561050415, 0.4715135750704787, 1728048762693986756, 
0.027121543884277344, 0.5460711717605591, 0.5053034402380522, 1728048762731868535, 
-0.3233054280281067, -0.3048279285430908, 0.5085900399434385, 1728048762761862701, 
-0.026395559310913086, -0.19659745693206787, 0.5270451549599902, 1728048762792377767, 
0.18911099433898926, 0.8224059343338013, 0.5082794211062065, 1728048762823659819, 
-0.4512926936149597, -0.3295135498046875, 0.5460687991375536, 1728048762851743463, 
0.11884212493896484, -0.6365880370140076, 0.5151405085399625, 1728048762881634052, 
-0.12012588977813721, 1.0258467197418213, 0.5316013153732535, 1728048762911532926, 
0.2662246823310852, -0.14558446407318115, 0.5205853711386161, 1728048762941521089, 
-0.27308523654937744, -0.6255359053611755, 0.47455788797913784, 1728048762971486903, 
0.2489451766014099, 0.2646017074584961, 0.4696141910009215, 1728048763001407047, 
-0.6449390649795532, 0.23844248056411743, 0.48175371317170596, 1728048763032070257, 
0.028726279735565186, -0.4242485761642456, 0.47057849727533785, 1728048763063911909, 
-0.15224498510360718, 0.16971486806869507, 0.5723743856965464, 1728048763091326222, 
0.297082781791687, 0.4215359687805176, 0.5183217166416241, 1728048763121283553, 
-0.08464276790618896, -0.047564804553985596, 0.49782779652565307, 1728048763151192125, 
-0.17796212434768677, -0.20575666427612305, 0.5086307105437262, 1728048763181122822, 
0.17586708068847656, 0.13025182485580444, 0.5110215756957185, 1728048763211079620, 
-0.495128870010376, 0.23113107681274414, 0.503207464118715, 1728048763241048527, 
0.043977200984954834, -0.2316545844078064, 0.49904174385046546, 1728048763271660553, 
-0.49427348375320435, -0.03597056865692139, 0.47575609902070665, 1728048763303663497, 
0.5182830691337585, 0.12694567441940308, 0.5443059110269337, 1728048763330910038, 
-0.43398797512054443, -0.12045294046401978, 0.4711058335828543, 1728048763360826287, 
-0.28854382038116455, 0.10365182161331177, 0.46948749025811687, 1728048763390765892, 
-0.13114988803863525, 0.04234898090362549, 0.4494558153129686, 1728048763420707170, 
0.21511363983154297, -0.13645929098129272, 0.4322713991776453, 1728048763450695955, 
-0.16567176580429077, 0.25596165657043457, 0.4727268943177348, 1728048763480666346, 
-0.09868991374969482, 0.1842440366744995, 0.48242502712029683, 1728048763511686858, 
-0.1189727783203125, -0.2007783055305481, 0.4842030775539526, 1728048763544104679, 
0.15170824527740479, 0.3896300792694092, 0.6106421807248829, 1728048763570514571, 
-0.05364471673965454, -0.0904051661491394, 0.5384915936233193, 1728048763600404868, 
-0.2277529239654541, 0.00559312105178833, 0.5155952286712421, 1728048763630377743, 
0.9171983599662781, 0.3349626064300537, 0.5082644584709523, 1728048763660349801, 
-0.36628031730651855, -0.1661810278892517, 0.4961106732113468, 1728048763689251969, 
-0.49813270568847656, -0.3661748766899109, 0.4595682110482723, 1728048763719237414, 
0.030965030193328857, 0.6007222533226013, 0.4540370846287503, 1728048763751704985, 
-0.5221045613288879, 0.004838347434997559, 0.4911105443746364, 1728048763782759132, 
0.28544604778289795, -0.6881797313690186, 0.5470363753791603, 1728048763810101789, 
0.20736318826675415, 0.5828391313552856, 0.5211958433458153, 1728048763839009654, 
-0.2515758275985718, 0.5021532773971558, 0.4985163602645118, 1728048763869944731, 
-0.17690014839172363, -0.5493265986442566, 0.5339227779514147, 1728048763899922103, 
0.12256360054016113, -0.14048677682876587, 0.5127349071417231, 1728048763929842581, 
-0.1054772138595581, 0.42096197605133057, 0.48018650528084206, 1728048763960056444, 
-0.2861937880516052, -0.18506354093551636, 0.4567087426795816, 1728048763992123169, 
-0.5846816301345825, -0.09204334020614624, 0.4825960367707072, 1728048764021771397, 
0.5583357810974121, 0.25878089666366577, 0.485332139594213, 1728048764049625447, 
-0.388894259929657, 0.05375778675079346, 0.4545633799035676, 1728048764079617087, 
0.5079429149627686, 0.1525559425354004, 0.506712536854674, 1728048764109565649, 
0.499050498008728, 0.19163227081298828, 0.5034012938438813, 1728048764139500903, 
-0.20062536001205444, -0.18524378538131714, 0.4918748364670562, 1728048764169494063, 
-0.3775973916053772, 0.1970609426498413, 0.4934771916225459, 1728048764199765884, 
0.05056828260421753, 0.059493303298950195, 0.46684148700813183, 1728048764231694979, 
0.13031452894210815, -0.009425342082977295, 0.5319904154959663, 1728048764259426284, 
-0.4068903923034668, 0.3126102089881897, 0.49549846260445274, 1728048764288318870, 
0.1936914324760437, -0.08079153299331665, 0.47880960876153467, 1728048764319194136, 
-0.7776597738265991, -0.2040150761604309, 0.5114487299260333, 1728048764349136924, 
0.6739179491996765, 0.2147665023803711, 0.5251995896256335, 1728048764379071336, 
-0.48240143060684204, 0.23561203479766846, 0.521295827818643, 1728048764408043098, 
0.050911009311676025, -0.15497881174087524, 0.449139914902261, 1728048764440345779, 
-0.2523841857910156, -0.1974865198135376, 0.4637018264215182, 1728048764472023261, 
-0.4802591800689697, 0.5629481077194214, 0.5539865848354896, 1728048764498987977, 
-0.04198873043060303, -0.00357133150100708, 0.5280876354618245, 1728048764528900875, 
-0.03854566812515259, -0.5516870021820068, 0.5206420562239056, 1728048764558763126, 
-0.14768153429031372, 0.7259737253189087, 0.5019271578948405, 1728048764588738217, 
-0.2244223952293396, 0.34429746866226196, 0.5053952848263348, 1728048764618704438, 
0.023484468460083008, -0.9187730550765991, 0.4981348282820205, 1728048764648656286, 
-0.6464901566505432, 0.6377859115600586, 0.47918624994423314, 1728048764679764715, 
-0.13971811532974243, 0.522925615310669, 0.45601542415355045, 1728048764712033289, 
-1.0489614009857178, -1.0586817264556885, 0.4898051208438641, 1728048764738711232, 
0.30178385972976685, 0.14987003803253174, 0.40554530209975276, 1728048764768626197, 
-0.11595427989959717, 0.4941837787628174, 0.40022837320299753, 1728048764798572115, 
0.7445354461669922, 0.06288617849349976, 0.4469503240971681, 1728048764828574837, 
0.3558376431465149, 0.11013621091842651, 0.5577418161573662, 1728048764858534856, 
-0.09647476673126221, -0.21729803085327148, 0.5503149278996854, 1728048764888566275, 
-0.5349476337432861, 0.12744170427322388, 0.5014467324958655, 1728048764920136156, 
0.12440705299377441, 0.4339585304260254, 0.49969341667847333, 1728048764951306021, 
-0.1651173233985901, -0.26515859365463257, 0.549423483575898, 1728048764978512847, 
-0.2973443269729614, -0.17358601093292236, 0.4952599518536161, 1728048765008433029, 
0.23795628547668457, 0.2535754442214966, 0.47977302617064743, 1728048765038412179, 
-0.36615127325057983, -0.04567909240722656, 0.48108310258215947, 1728048765068352789, 
0.03210854530334473, 0.12877529859542847, 0.4731116143377442, 1728048765098382311, 
0.3134493827819824, 0.18060684204101562, 0.5104271281840312, 1728048765128391555, 
-0.6005605459213257, 0.13235527276992798, 0.49428211031967945, 1728048765159738428, 
-0.05582785606384277, -0.14332294464111328, 0.5022002030748474, 1728048765189966439, 
0.3461763858795166, 0.1837889552116394, 0.534985395040057, 1728048765218269431, 
0.6447479724884033, 0.21099942922592163, 0.5018809325388011, 1728048765248326863, 
-0.22523093223571777, -0.24773186445236206, 0.4993411436045734, 1728048765278294576, 
-0.0149003267288208, 0.020231246948242188, 0.5121969797960695, 1728048765307561115, 
-0.6032019257545471, 0.8172457218170166, 0.4912991361362037, 1728048765337534491, 
-0.4320610761642456, -0.6388249397277832, 0.46228060880702426, 1728048765368137449, 
-0.26143187284469604, -0.1353115439414978, 0.40821385013531947, 1728048765400177461, 
-0.10065203905105591, 0.3917226791381836, 0.4867526873432029, 1728048765427418516, 
0.16392570734024048, -0.019524097442626953, 0.43534054776894876, 1728048765457335495, 
1.078634262084961, 0.44637608528137207, 0.4394578476593232, 1728048765487320874, 
0.2507894039154053, -0.1190914511680603, 0.533820257552121, 1728048765517271689, 
0.5673966407775879, -0.217068612575531, 0.5616214464643824, 1728048765546228397, 
-0.17617124319076538, 0.8321624994277954, 0.49866048899046167, 1728048765577154064, 
-1.0342519283294678, -0.37047457695007324, 0.5070700272456142, 1728048765607952586, 
0.08714532852172852, -0.3253929018974304, 0.4603477772593041, 1728048765639735541, 
-0.9039109349250793, -0.499417781829834, 0.52478100142403, 1728048765667173938, 
0.03190422058105469, 0.6467010378837585, 0.5026483018539176, 1728048765697009851, 
-0.2643274664878845, 0.10174864530563354, 0.4880510472721069, 1728048765726882686, 
-0.2958296537399292, -0.6261973977088928, 0.48273092586598054, 1728048765756890813, 
0.39862704277038574, 0.5487369894981384, 0.4571392235499609, 1728048765786704114, 
0.22580432891845703, 0.10962438583374023, 0.4695380597830763, 1728048765816719469, 
0.23293018341064453, -0.2219817042350769, 0.4917376114631107, 1728048765848366346, 
-0.5710200071334839, 0.5296079516410828, 0.49645176164962407, 1728048765879784085, 
0.09926921129226685, 0.2577742338180542, 0.5588592436831398, 1728048765906570329, 
-0.3172295093536377, -0.5064225196838379, 0.4785801046164933, 1728048765936451363, 
-0.19412904977798462, 0.17875438928604126, 0.499271561320113, 1728048765966420766, 
-0.46007734537124634, 0.5351209044456482, 0.541606785839201, 1728048765996384305, 
0.8378773331642151, -0.41951268911361694, 0.5436189754187993, 1728048766026300573, 
-0.21726977825164795, 0.17327463626861572, 0.49726742484375, 1728048766056310151, 
0.02092611789703369, 0.3317708969116211, 0.45161202646110576, 1728048766087917886, 
-0.32310009002685547, -0.23097354173660278, 0.49550573316082375, 1728048766118734610, 
-0.08893924951553345, 0.22390490770339966, 0.5918166586115667, 1728048766145176471, 
0.005430400371551514, 0.37960052490234375, 0.4699483261001134, 1728048766176093950, 
-0.2109363079071045, -0.3210133910179138, 0.4779245150853387, 1728048766205970524, 
0.4072692394256592, -0.12859749794006348, 0.5092199459423578, 1728048766236012471, 
-0.2822752594947815, 0.7703880071640015, 0.4922625950305675, 1728048766265898106, 
0.20592200756072998, -0.23097145557403564, 0.4835214055780058, 1728048766296612019, 
-0.19303476810455322, -0.5602235198020935, 0.5005716737409408, 1728048766328159415, 
0.23085695505142212, 0.8735617995262146, 0.5434586732324375, 1728048766355833015, 
-0.5463730692863464, 0.17790257930755615, 0.47937586829265205, 1728048766385675091, 
0.6502248048782349, -0.8338836431503296, 0.4954665424074836, 1728048766415682310, 
-0.19405263662338257, 0.7494441866874695, 0.5258510267233829, 1728048766445614047, 
-0.20403200387954712, 0.40944862365722656, 0.5288556751584929, 1728048766475563686, 
-0.06236308813095093, -0.800670325756073, 0.5089770970300178, 1728048766505557066, 
0.2791088819503784, 0.2355068325996399, 0.4927931584039354, 1728048766536030290, 
0.02870011329650879, 0.846879780292511, 0.4762155054691368, 1728048766568089926, 
0.15330827236175537, -0.6089454889297485, 0.5425295432875756, 1728048766595541836, 
0.12282264232635498, -0.17260539531707764, 0.5047919946204021, 1728048766625288760, 
-0.25147151947021484, 1.1444224119186401, 0.4771115853624901, 1728048766655287628, 
0.06579697132110596, -0.35482484102249146, 0.4643649419992232, 1728048766684209848, 
-0.21501296758651733, -0.5919161438941956, 0.4627423841269621, 1728048766715172485, 
-0.13135498762130737, 0.6253529787063599, 0.49781937426696465, 1728048766745098563, 
-0.5185564160346985, 0.3371208906173706, 0.48079120992219704, 1728048766776479770, 
0.9016730189323425, -0.3566022515296936, 0.5007425137744391, 1728048766808322495, 
-0.360353946685791, 0.2957247495651245, 0.6190585717609645, 1728048766835060860, 
-0.009556055068969727, 0.246892511844635, 0.5206153589533522, 1728048766864966683, 
-0.07430446147918701, -0.3409315347671509, 0.48286340237037223, 1728048766894855024, 
-0.220331072807312, 0.5565077662467957, 0.46994498152674336, 1728048766924823293, 
-0.06632822751998901, 0.39703625440597534, 0.4985798500066208, 1728048766954774175, 
0.041057705879211426, -0.37284260988235474, 0.5269283948867843, 1728048766984724503, 
0.06989383697509766, 0.20759373903274536, 0.516120801384138, 1728048767016032036, 
-0.40981340408325195, 0.3703423738479614, 0.4805286273211372, 1728048767048445887, 
0.04109686613082886, -0.4707046151161194, 0.5673116304749409, 1728048767074623682, 
0.12876605987548828, 0.2612800598144531, 0.49495589867519313, 1728048767104578761, 
0.22068703174591064, 0.6594648957252502, 0.4953526315489649, 1728048767134511757, 
-0.6410681009292603, -0.7251629829406738, 0.4817948557638017, 1728048767164389718, 
0.6868371367454529, -0.05588841438293457, 0.4801458686861978, 1728048767194347055, 
-0.37274354696273804, 1.0480232238769531, 0.4913065163421655, 1728048767224388177, 
-0.24924272298812866, -0.5512029528617859, 0.463964179326018, 1728048767256558468, 
0.10208743810653687, -0.44932615756988525, 0.5142427976420757, 1728048767287049094, 
-0.008103787899017334, 1.3900734186172485, 0.592202222518997, 1728048767314183511, 
-0.1527840495109558, -0.23366129398345947, 0.5062724102624119, 1728048767344085122, 
0.30063050985336304, -0.8429087996482849, 0.4878383859457058, 1728048767374063270, 
0.46974462270736694, 1.0625861883163452, 0.4952604933230241, 1728048767404004505, 
-0.5794501304626465, 0.09145510196685791, 0.5068970107015414, 1728048767433949010, 
0.2947337031364441, -0.7060405015945435, 0.4995506195941281, 1728048767464084718, 
-0.2058507800102234, 0.6549097299575806, 0.4637817043699, 1728048767496422656, 
-0.015274524688720703, 0.3884204626083374, 0.5349925281110831, 1728048767523833932, 
-0.3544437885284424, -0.3363584876060486, 0.5023078925352388, 1728048767553754520, 
0.7569452524185181, 0.16105586290359497, 0.5436042388931033, 1728048767583720111, 
-0.2380744218826294, 0.2736179232597351, 0.5394831176726507, 1728048767613650237, 
-0.1626773476600647, 0.13211435079574585, 0.5278163870200446, 1728048767643630235, 
-0.15383964776992798, -0.17603778839111328, 0.4977192837107259, 1728048767673533470, 
-0.32902783155441284, -0.0036429166793823242, 0.49007961138180384, 1728048767704325672, 
0.5398398637771606, 0.5228910446166992, 0.4776624579530701, 1728048767736298621, 
0.03943228721618652, -0.09717559814453125, 0.5344007622927543, 1728048767763443772, 
-0.33063411712646484, -0.06987112760543823, 0.4751448786339492, 1728048767793405290, 
-0.0968625545501709, 0.2200549840927124, 0.46679536958120776, 1728048767823314261, 
-0.019953548908233643, 0.17571955919265747, 0.4864066659784331, 1728048767852230188, 
-0.005844831466674805, 0.07067948579788208, 0.5202113556974355, 1728048767881238545, 
0.18163013458251953, 0.030052244663238525, 0.483713541311845, 1728048767913173220, 
-0.6630833745002747, 0.009937584400177002, 0.48892495746169107, 1728048767944139334, 
0.9163306951522827, 0.36825960874557495, 0.46239283065626363, 1728048767976417918, 
-0.22968190908432007, -0.018774986267089844, 0.5671317419934582, 1728048768003115729, 
-0.4864746928215027, -0.2287580370903015, 0.5271625175935981, 1728048768032950278, 
0.3035110831260681, 0.30087530612945557, 0.5289859310067825, 1728048768062902560, 
-0.1418284773826599, 0.49775344133377075, 0.49371596938383827, 1728048768092818703, 
0.3957723379135132, -0.4924408793449402, 0.48030388392582696, 1728048768122771792, 
0.3788222670555115, -0.045908331871032715, 0.4864287751151016, 1728048768152768222, 
-0.09600073099136353, 0.817099928855896, 0.4784744436320587, 1728048768183911471, 
-0.4535827040672302, -0.47582370042800903, 0.4532490377693072, 1728048768216451094, 
0.23647403717041016, -0.13327670097351074, 0.5587470776230382, 1728048768242666819, 
-0.0064882636070251465, 0.8631685972213745, 0.4929310107361557, 1728048768272531208, 
-0.15144145488739014, -0.2707740068435669, 0.4943897324424394, 1728048768302599416, 
-0.24188023805618286, -0.26932644844055176, 0.5116471540739422, 1728048768332451200, 
0.8792186379432678, 0.7210837006568909, 0.536496208747449, 1728048768362664483, 
-0.46275395154953003, 0.04878532886505127, 0.5511490400800344, 1728048768392397174, 
0.2882152199745178, -0.345622181892395, 0.47956760857378244, 1728048768423931352, 
-0.1396387219429016, 0.2425234317779541, 0.46976340333841493, 1728048768454800689, 
-0.0331035852432251, 0.09353125095367432, 0.5395671614893113, 1728048768482180184, 
