acc_x, acc_y, angular_z, stamp, 
0.011938750743865967, 0.012155354022979736, 1.632955673490091e-10, 1728048857502295235, 
-0.002618551254272461, 0.004913926124572754, 1.4066754266790174e-10, 1728048857532583531, 
0.0078081488609313965, -0.016712725162506104, 1.0135735022182886e-10, 1728048857564917741, 
-0.004972338676452637, 0.0012578964233398438, 7.61902184557073e-11, 1728048857592184219, 
0.005423605442047119, 0.0011962652206420898, 2.8204551969610432e-11, 1728048857622071950, 
0.019624054431915283, -0.007667839527130127, -1.6029170224100244e-11, 1728048857652063495, 
0.035175323486328125, 0.0373225212097168, -4.814509443713769e-11, 1728048857682108535, 
-0.0065460205078125, 0.0014339685440063477, -9.128608903560621e-11, 1728048857711927605, 
0.01988959312438965, -0.002094566822052002, -9.632361844158612e-11, 1728048857741915918, 
-0.019823014736175537, 0.008732199668884277, -8.130200263755708e-11, 1728048857772873883, 
0.02481675148010254, 0.001568615436553955, -7.234392093749672e-11, 1728048857804508861, 
-0.0024412870407104492, -0.009214639663696289, -1.6009221186647123e-06, 1728048857841743085, 
-0.01159578561782837, 0.005119144916534424, -8.501596229521864e-11, 1728048857871975648, 
0.004434645175933838, -0.0326995849609375, -1.5775312235426243e-10, 1728048857901845483, 
0.02220308780670166, -0.023782789707183838, -1.937102196887235e-06, 1728048857932618309, 
-0.039058029651641846, -0.009311258792877197, -1.3965379812355215e-10, 1728048857964536946, 
0.0038704276084899902, -0.0073983073234558105, -8.196303691559575e-11, 1728048857991556361, 
0.005701720714569092, 0.0036115050315856934, 1.6572399747458686e-11, 1728048858021378748, 
0.0233917236328125, -0.001497030258178711, 0.0005336517160973988, 1728048858051312257, 
-0.0004534721374511719, 0.01660376787185669, 3.771318157022746e-05, 1728048858081335687, 
0.013853251934051514, -0.03900957107543945, -0.00014024015971445832, 1728048858110236823, 
-0.02924203872680664, 0.013099312782287598, -0.0001304849226519836, 1728048858141299520, 
-0.02928060293197632, -0.005109548568725586, 0.0003666482686738923, 1728048858172674348, 
0.023388445377349854, 0.005821526050567627, 0.0002103089191500553, 1728048858204132788, 
0.014814317226409912, 0.01502913236618042, -0.001118049252690763, 1728048858231428564, 
-0.02484959363937378, 0.0008134245872497559, 0.0007784844147647818, 1728048858260217219, 
-0.008417963981628418, 0.002608358860015869, 0.0007245047523925317, 1728048858291068272, 
0.0020092129707336426, -0.004479944705963135, 0.0009300831816405065, 1728048858320931498, 
0.012627840042114258, 0.008118629455566406, -0.0004930699487757443, 1728048858350911331, 
-0.0014652013778686523, -0.0008316636085510254, -0.00013754368249851152, 1728048858380812989, 
-0.04941248893737793, 0.002839207649230957, 0.0006850942797636002, 1728048858413612727, 
0.0016151070594787598, 0.013798415660858154, -0.0008587440725045878, 1728048858442973558, 
-0.005452156066894531, 0.02797645330429077, 0.0006544414581936489, 1728048858480588618, 
-0.0156707763671875, -0.02582317590713501, -0.00013325607724483425, 1728048858510557511, 
-0.0024740099906921387, -0.025675177574157715, -0.001190746268514029, 1728048858540792025, 
-0.009563326835632324, 0.006576597690582275, 0.0006944364436824835, 1728048858572978849, 
0.005075514316558838, 0.010136127471923828, 0.0006236367096091978, 1728048858600504693, 
0.005176961421966553, -0.03292137384414673, -0.0004890165338948025, 1728048858630366953, 
0.01919609308242798, -0.004309475421905518, -0.000497820028008826, 1728048858660300117, 
-0.029002130031585693, -0.0023995041847229004, -0.0004907710089387194, 1728048858690298705, 
0.0019814372062683105, -0.018708646297454834, 0.0011003854370749005, 1728048858720199187, 
0.000347137451171875, 0.036815762519836426, 0.000744050849825596, 1728048858750159611, 
0.003750622272491455, 0.006294369697570801, -0.00012900912943774446, 1728048858781575512, 
0.02879202365875244, 0.006002485752105713, -0.0011490263892389458, 1728048858812855557, 
-0.02123081684112549, 0.011311233043670654, 3.7226981105162036e-05, 1728048858840081304, 
0.006066799163818359, 0.02378183603286743, 3.985234337774455e-05, 1728048858869997741, 
0.013155043125152588, -0.017380177974700928, 0.001704429795108884, 1728048858898883347, 
-0.011072933673858643, 0.000622093677520752, -0.0004884157797930615, 1728048858928903786, 
0.006650149822235107, -0.021055161952972412, -0.0004765281350490676, 1728048858959798810, 
-0.012315154075622559, -0.008489727973937988, 0.0003861235305382247, 1728048858989746285, 
0.0037783384323120117, 0.008989393711090088, 0.001051195058562931, 1728048859020875476, 
-0.010569274425506592, 0.010579347610473633, 0.00037119733007383754, 1728048859052669057, 
0.01628977060317993, 0.02291738986968994, -0.0009353908069665222, 1728048859079623159, 
0.0035727620124816895, -0.03312176465988159, -0.000849754971506218, 1728048859109574261, 
-0.008828401565551758, -0.007901310920715332, 0.00022114448289259873, 1728048859139491317, 
0.012376904487609863, 0.00610804557800293, 0.0002108804641289064, 1728048859169451306, 
0.028064846992492676, -0.013898372650146484, -0.00014111579951710474, 1728048859199442200, 
-0.006819367408752441, 0.005737483501434326, -0.00013708954549600087, 1728048859229442638, 
-0.0012317895889282227, 0.02381032705307007, -0.0002957824965245927, 1728048859260880949, 
0.02771174907684326, 0.014931142330169678, 0.0008908143312502193, 1728048859292194211, 
0.0005570650100708008, -0.001514434814453125, 0.00023953104732011137, 1728048859319317039, 
0.007163524627685547, 0.005375981330871582, -0.0003178991049781468, 1728048859349130056, 
0.02159935235977173, -0.014454245567321777, 0.0005706597217228676, 1728048859379106870, 
-0.033763587474823, -0.028749823570251465, -0.0001412676328746656, 1728048859409063972, 
-0.025202691555023193, -0.007101833820343018, 0.0005699233624812839, 1728048859438974777, 
0.021097958087921143, 0.01789391040802002, 0.0003888355081299802, 1728048859469018517, 
-0.018901288509368896, 0.019459664821624756, -0.000634684012553572, 1728048859500855256, 
0.0028508901596069336, -0.002218961715698242, -0.0004944358897116345, 1728048859530872035, 
0.0017278194427490234, 0.021365702152252197, 4.4653410701881176e-05, 1728048859558896358, 
-0.00018990039825439453, -0.01098930835723877, 0.00199497405964669, 1728048859588773776, 
-0.0025444626808166504, -0.020182430744171143, 0.0005721022860087054, 1728048859618674418, 
0.015341043472290039, -0.010993599891662598, 0.00022064080053212966, 1728048859648662939, 
-0.015523374080657959, -0.011181294918060303, 0.0009264696491579657, 1728048859678578469, 
-0.004171848297119141, -0.0060735344886779785, 0.000561888628470565, 1728048859708811821, 
0.021018028259277344, 0.027644455432891846, -0.00013487737822328764, 1728048859741517456, 
0.01389312744140625, 0.01696479320526123, -0.0009355488155014457, 1728048859768467062, 
-0.0037490129470825195, -0.0011311173439025879, 0.0007425787602118545, 1728048859798406904, 
-0.006888151168823242, 0.007808804512023926, -0.000314481146075659, 1728048859828352281, 
-0.013820171356201172, 0.0021742582321166992, 0.002156576181137347, 1728048859858312614, 
0.004189908504486084, -0.006936013698577881, -0.0001392112343728159, 1728048859888285128, 
0.01143789291381836, -0.013987302780151367, -0.0008727547526347246, 1728048859917242004, 
0.008463501930236816, -0.02305734157562256, -0.0011389810263895746, 1728048859948797735, 
-0.009191513061523438, -0.0031170248985290527, 0.0010303624004811623, 1728048859980903434, 
-0.012513458728790283, -0.0014109611511230469, -0.0005434373788142612, 1728048860008104280, 
0.018098533153533936, 0.011297762393951416, 0.00022525841825496345, 1728048860036946483, 
-0.010271728038787842, -0.011906802654266357, -0.00031203020051460175, 1728048860066937112, 
0.0005918145179748535, -0.029539883136749268, 0.000900957751086832, 1728048860097898357, 
-0.002675175666809082, -0.009657979011535645, 0.00039653741077160155, 1728048860127810467, 
0.013202488422393799, 0.010003626346588135, 0.0007442070170464197, 1728048860157924391, 
0.013302206993103027, 0.012073755264282227, 0.0003828031372229034, 1728048860189064897, 
0.00747227668762207, 2.378225326538086e-05, 0.00020803935040486341, 1728048860220867970, 
-0.017560482025146484, -0.01919710636138916, 4.8943081384570926e-05, 1728048860247655841, 
-0.013737499713897705, -0.006465613842010498, -0.00013961585138993872, 1728048860277538434, 
0.0023258328437805176, 0.006634950637817383, 0.001109275640373593, 1728048860307521449, 
-0.004810988903045654, 0.0014666914939880371, -0.000664806057802148, 1728048860337467017, 
0.011690258979797363, -0.020166218280792236, -0.0008429833228203341, 1728048860367446929, 
-0.006538510322570801, -0.007996320724487305, 0.0003899648433589043, 1728048860397404859, 
-0.02049010992050171, 0.004223942756652832, 3.240587482490657e-05, 1728048860428682037, 
0.015194535255432129, -0.0049683451652526855, -0.0003026183988143037, 1728048860460000284, 
0.0037941932678222656, -0.006872713565826416, -0.00015248895738600657, 1728048860487364172, 
0.0072751641273498535, 0.011247038841247559, -0.00031194409344350655, 1728048860517172200, 
0.01979672908782959, 0.012823879718780518, -0.00013518158185485776, 1728048860547154878, 
0.009021997451782227, -0.010622203350067139, 0.0005733264134901131, 1728048860577096063, 
0.016041100025177002, -0.012313604354858398, 0.00022506208344852353, 1728048860607022225, 
-0.004088938236236572, 0.001995861530303955, 4.161685683881173e-05, 1728048860637100751, 
0.012283384799957275, -0.02123129367828369, -0.0001245985223071924, 1728048860668678110, 
-0.01630842685699463, 0.0021556615829467773, 4.132015481261103e-05, 1728048860698968509, 
0.0016034841537475586, -0.005047738552093506, 0.0004239162913930711, 1728048860726808312, 
0.023093700408935547, -0.02475869655609131, 0.00039125129510432565, 1728048860756820071, 
0.013846099376678467, -0.013828635215759277, -0.0006674302319048536, 1728048860786737145, 
-0.014879345893859863, -0.0211217999458313, 0.0007466353226528413, 1728048860816753684, 
0.0031775236129760742, 0.01656186580657959, 0.0003967552960558706, 1728048860846649585, 
0.006703734397888184, 0.014827072620391846, 0.0005697981841206397, 1728048860876881215, 
0.010170340538024902, 0.01826542615890503, -0.0004564333007019007, 1728048860909005783, 
0.015523135662078857, 0.009291350841522217, -0.0016890172945840912, 1728048860936531655, 
-0.023552358150482178, -0.016008436679840088, 0.0002093552178950741, 1728048860966427821, 
0.012106716632843018, 0.010684370994567871, 0.0003921128045331362, 1728048860996372797, 
0.0205230712890625, -0.009228348731994629, 0.0003932022958812259, 1728048861026386317, 
0.011801004409790039, -0.00034606456756591797, -0.0004922019008469827, 1728048861056297348, 
0.009929656982421875, 0.0016797184944152832, -0.0015493328859042415, 1728048861086266432, 
-0.00442880392074585, -0.003917515277862549, 0.0012511443975681286, 1728048861116708273, 
-0.0010982751846313477, -0.0005377531051635742, 0.0008434730503570878, 1728048861149426065, 
0.02427762746810913, 0.008620977401733398, -0.0003459855432952284, 1728048861176128920, 
-0.02251046895980835, 0.0047942399978637695, -0.0003156379079433905, 1728048861206154356, 
0.0134352445602417, -0.016815185546875, 0.00022285567248952706, 1728048861235039450, 
0.014129996299743652, -0.013470053672790527, -0.0001385939320028572, 1728048861265999887, 
0.02092421054840088, 0.011311829090118408, 0.00038785138078084065, 1728048861295966171, 
0.011850953102111816, -0.006461441516876221, -0.0008379874135442052, 1728048861326124676, 
0.009642243385314941, -0.00797116756439209, -0.0013345591514655308, 1728048861356986410, 
-0.0026797056198120117, -0.004183709621429443, -0.001469634553509163, 1728048861388702324, 
0.014642119407653809, 0.004951596260070801, 0.00043348057165135226, 1728048861415927469, 
0.012256145477294922, -0.005518436431884766, 0.0007545037563224963, 1728048861445631312, 
0.004407286643981934, 0.01434028148651123, -0.00031437600978345443, 1728048861475587071, 
0.019430458545684814, 0.009286820888519287, -0.001555201828710315, 1728048861505520579, 
-0.004936575889587402, 0.013026893138885498, 0.0005669442879246747, 1728048861535797402, 
-0.006624996662139893, 0.012910962104797363, 0.0003962359631441065, 1728048861565431506, 
0.02918320894241333, 0.003675103187561035, -0.000803075105049938, 1728048861597123739, 
0.029430508613586426, 0.007300198078155518, -0.0009916639552573464, 1728048861628018294, 
-0.009969651699066162, 0.0016161203384399414, -0.0007394239409618257, 1728048861655344581, 
-0.016808152198791504, 0.015897393226623535, 0.0011418872760449, 1728048861684210294, 
0.010483503341674805, 0.0032259225845336914, 0.00109045365405216, 1728048861707659687, 
-0.018692195415496826, 0.011990964412689209, -0.00035424603850994486, 1728048861734244603, 
0.013239741325378418, -0.005999267101287842, -0.0008464343580938229, 1728048861764031445, 
-0.017454922199249268, -0.009438097476959229, -0.0002996740987273237, 1728048861795059194, 
-0.0011135339736938477, -0.0004947781562805176, 0.00021505264883173644, 1728048861824992751, 
0.015069007873535156, 0.019192755222320557, 0.000749544097665499, 1728048861854892673, 
0.00901263952255249, -0.0079573392868042, 0.0007487832161586244, 1728048861884901980, 
0.007399439811706543, -0.004274904727935791, -0.0010929846121747661, 1728048861917676876, 
-0.013820052146911621, -0.023814141750335693, -0.0005020461316647128, 1728048861946764670, 
-0.007928669452667236, -0.00216519832611084, 0.0006181833752215767, 1728048861974725949, 
0.013465583324432373, 0.004695594310760498, 0.000569156891572309, 1728048862004676574, 
-0.0007331371307373047, -0.0029522180557250977, -0.0003203053286083407, 1728048862034636106, 
0.025912702083587646, 0.011343896389007568, -0.00031439725050083606, 1728048862064590359, 
-0.002396225929260254, -0.0045983195304870605, -0.0006687493698731217, 1728048862094537867, 
-0.020521104335784912, -0.008424580097198486, 0.0009128271169057082, 1728048862124769886, 
0.011474430561065674, -0.03362220525741577, -0.0004641211147963724, 1728048862156748007, 
0.018942058086395264, -0.013655304908752441, -0.00034143459989109497, 1728048862184504869, 
0.006091654300689697, -0.02053380012512207, -0.0006719648480134746, 1728048862214308745, 
0.018941104412078857, -0.0042473673820495605, 0.0005627531368829664, 1728048862244283975, 
-0.036906659603118896, 0.014043033123016357, 0.00040565820392377764, 1728048862273229661, 
0.0006913542747497559, 0.00915682315826416, -0.00012903541240830464, 1728048862304176692, 
-0.007984817028045654, 0.004322528839111328, -0.0004851836758888346, 1728048862334153943, 
-0.010989546775817871, -0.0027664899826049805, 0.0002077680459787125, 1728048862364564187, 
-0.015864908695220947, 0.00627821683883667, 0.00020737920325526653, 1728048862396754349, 
0.005874752998352051, -0.015026509761810303, 0.00024258511269151193, 1728048862424027793, 
-0.013630688190460205, -0.04170942306518555, -0.0006685707677966991, 1728048862453893972, 
-0.0027278661727905273, -0.019924700260162354, 0.00039141693804843467, 1728048862483892963, 
-0.005970299243927002, -0.014300644397735596, -0.0006729266133855039, 1728048862513830801, 
-0.0023512840270996094, 0.01657557487487793, 0.0007434620626808363, 1728048862543814918, 
0.011920571327209473, 0.011630058288574219, -0.000665212647539499, 1728048862573742005, 
0.015566766262054443, 0.011768877506256104, 3.457807854489763e-05, 1728048862604770363, 
0.009389698505401611, -0.022440195083618164, -0.00029613873146334165, 1728048862636774158, 
-0.03383338451385498, -0.018616795539855957, -5.654463702845451e-05, 1728048862673668503, 
0.003316164016723633, -0.0023387670516967773, 0.0012699627142094773, 1728048862703847168, 
0.019053280353546143, -0.007558226585388184, -0.0010276221722253533, 1728048862733718199, 
0.013874828815460205, -0.0033733248710632324, -0.0006395702561890548, 1728048862764752776, 
-0.03153431415557861, 0.007219851016998291, -0.0002980609057827383, 1728048862796750070, 
-0.013583362102508545, -0.0037276744842529297, -0.00036159439603509135, 1728048862823619211, 
-0.028063297271728516, 0.014247715473175049, 0.000219395751452498, 1728048862853504086, 
0.025552034378051758, -0.001903235912322998, -0.0006695979136759251, 1728048862883412706, 
-0.00959324836730957, -0.0017210841178894043, -0.0010228980276258525, 1728048862913481315, 
-0.03189659118652344, -0.008367478847503662, -0.00013145731053387476, 1728048862943427992, 
0.004628360271453857, 0.024034440517425537, 0.00022209642036215282, 1728048862973483943, 
0.0011464357376098633, -0.01022869348526001, 0.0002133445180004348, 1728048863004216062, 
-0.005503237247467041, 0.031115233898162842, -0.001166033859905057, 1728048863034938138, 
-0.0069536566734313965, -0.01898878812789917, -0.0018123110092505817, 1728048863063453022, 
0.004401504993438721, 0.007921338081359863, -0.00066703960010735, 1728048863093477153, 
-0.01195669174194336, 0.002381563186645508, 0.001106415011173948, 1728048863123322208, 
-0.006598353385925293, 0.009643316268920898, 4.358533591140278e-05, 1728048863153410110, 
0.006099045276641846, -0.015662312507629395, 0.00021670435725542077, 1728048863183391149, 
0.022170305252075195, -0.005133390426635742, -0.000141083532208585, 1728048863213386762, 
-0.004760801792144775, 0.028950631618499756, 0.0005462167168413886, 1728048863244814004, 
0.016104042530059814, 0.03388625383377075, 0.0009971836690567915, 1728048863272608143, 
