acc_x, acc_y, angular_z, stamp, 
-0.01364225149154663, -0.020455121994018555, -1.7282814824544536e-11, 1728048617040436603, 
-0.018687129020690918, -0.014863431453704834, 2.198099575936242e-06, 1728048617067551743, 
-0.0006975531578063965, 0.011978566646575928, -2.0380671315740068e-10, 1728048617097443821, 
-0.0043544769287109375, -0.0007791519165039062, -1.8871011694596256e-10, 1728048617127381955, 
0.004393875598907471, 0.020614683628082275, 1.9922471648339104e-06, 1728048617157298527, 
-0.020623624324798584, 0.0007540583610534668, -4.940575272111754e-11, 1728048617187300471, 
0.0027545690536499023, -0.010078191757202148, -6.53936739708542e-11, 1728048617218197207, 
0.03322631120681763, 0.007780134677886963, 1.9599735003386542e-06, 1728048617248606973, 
0.03302878141403198, 0.025590896606445312, -1.8928757543986085e-11, 1728048617281105274, 
-0.03900402784347534, -0.031986773014068604, 9.289049488104973e-11, 1728048617317120126, 
-0.0049100518226623535, 0.005812585353851318, 6.066156959415654e-11, 1728048617347032145, 
-0.026111245155334473, -0.0030941367149353027, 2.4676592825570494e-12, 1728048617376997361, 
0.019011080265045166, 0.005884349346160889, -6.617653160287957e-11, 1728048617409443338, 
0.028085291385650635, -0.019260942935943604, 1.9553790908140657e-06, 1728048617439924343, 
-0.01676243543624878, -0.006610274314880371, -1.0770118550046393e-10, 1728048617466931848, 
-0.03452754020690918, -0.0065378546714782715, -1.3283112280420082e-10, 1728048617495736823, 
0.017841815948486328, 0.03311169147491455, 1.9858437050520393e-06, 1728048617525748265, 
-0.008854508399963379, -0.008163273334503174, -2.6232455117111076e-10, 1728048617556681081, 
0.00375521183013916, -0.004537642002105713, -3.080653249217181e-10, 1728048617586638099, 
-0.01581859588623047, -0.0008661150932312012, 1.9877967483967285e-06, 1728048617616618435, 
0.0023102164268493652, -0.0009660720825195312, -3.0977019659936203e-10, 1728048617648687766, 
0.02561897039413452, 0.0026477575302124023, 1.9668732226466963e-06, 1728048617678987169, 
0.02710777521133423, -0.02789485454559326, -1.114085529996317e-10, 1728048617731218019, 
0.017866134643554688, 0.0011318325996398926, 1.6967311127352707e-06, 1728048617766341711, 
0.0070154666900634766, 0.01929020881652832, -1.4706010360349797e-10, 1728048617796280120, 
-0.014480769634246826, 0.003126800060272217, -1.3154925106439142e-10, 1728048617826476965, 
0.008807480335235596, -0.009562373161315918, 1.9505261015782587e-06, 1728048617857033247, 
-0.004172980785369873, -0.025093138217926025, 0.0005354846509909272, 1728048617889090442, 
0.3499463200569153, 0.09022343158721924, 0.010896843814561831, 1728048617926028919, 
0.45696085691452026, 0.4367205500602722, 0.17602854445868613, 1728048617955991234, 
1.3181633949279785, 0.23838108777999878, 0.3125627190805634, 1728048617985942109, 
0.5776916742324829, -0.10757827758789062, 0.31413407362101087, 1728048618016423051, 
0.33691293001174927, 0.0422247052192688, 0.3759242205680938, 1728048618049191146, 
0.1459963321685791, 0.3458537459373474, 0.577821859944969, 1728048618075888846, 
0.7841386795043945, 0.44459962844848633, 0.6221941174151766, 1728048618105664558, 
0.8022310137748718, -0.16842913627624512, 0.7145939582243229, 1728048618135670654, 
-0.012479305267333984, -0.022637546062469482, 0.7679004368342518, 1728048618165624416, 
0.4867570400238037, 0.9940040111541748, 0.8595581425228136, 1728048618195517064, 
0.2051447033882141, 0.5897555351257324, 0.9572005371921813, 1728048618225553790, 
0.14378446340560913, -0.6531139016151428, 1.0256841244885544, 1728048618256458920, 
0.44269949197769165, -0.3675559163093567, 0.9870831580680746, 1728048618288794048, 
-0.11923420429229736, 0.6054970026016235, 1.1567479468778623, 1728048618315425942, 
-0.2865779399871826, 0.5714328289031982, 0.9880991826992078, 1728048618346067219, 
-0.15819501876831055, 0.20181608200073242, 1.036016273338654, 1728048618375332203, 
-0.2369018793106079, 0.4062212109565735, 1.0004348931486284, 1728048618405283144, 
-0.4361628293991089, 0.6315198540687561, 0.9369960844298196, 1728048618436094298, 
-0.07652860879898071, 0.3381168246269226, 0.9896930504130804, 1728048618465332036, 
0.15218883752822876, -0.1999625563621521, 0.947929172609634, 1728048618496904114, 
-0.05525612831115723, -0.16299021244049072, 0.9770573061086175, 1728048618527472017, 
0.23480886220932007, 0.29213976860046387, 1.0917656411633847, 1728048618555011275, 
-0.15933173894882202, 0.29449933767318726, 0.9918503846235608, 1728048618584942616, 
-0.280462384223938, 0.32359933853149414, 1.0122611624522775, 1728048618614836406, 
0.13326454162597656, 0.37417304515838623, 1.071194732007108, 1728048618643833583, 
-0.38833439350128174, -0.17941570281982422, 0.9817295729227122, 1728048618674797182, 
0.6062222719192505, -0.20950669050216675, 0.9688331942166762, 1728048618704760346, 
-0.15791016817092896, 0.04882001876831055, 0.9500608667683326, 1728048618736486748, 
-0.24455618858337402, 0.4708489179611206, 1.0978460643959664, 1728048618764692468, 
-0.055683016777038574, 0.2548806071281433, 1.0090164893396858, 1728048618794697980, 
-0.14259088039398193, 0.45506423711776733, 0.9766245868995741, 1728048618824510450, 
0.16947108507156372, 0.08700680732727051, 0.9338250388467181, 1728048618854482160, 
-0.3342810273170471, -0.8241212964057922, 0.9716561109397642, 1728048618884608000, 
0.5146833658218384, 0.07476693391799927, 0.9977062766448317, 1728048618914400832, 
0.54341721534729, 0.7085503935813904, 0.9583653359637075, 1728048618945035392, 
-0.41714465618133545, 0.5943096876144409, 0.9058715226232124, 1728048618977059196, 
-0.09564673900604248, 0.18839752674102783, 1.0756927557244311, 1728048619004287513, 
-0.5779443979263306, -0.3882606625556946, 0.9874148057815636, 1728048619034191010, 
0.5275660753250122, -0.1186227798461914, 0.9858819710449358, 1728048619064090858, 
-0.10329759120941162, 0.005529522895812988, 0.9977131078537427, 1728048619094104286, 
-0.20630383491516113, 0.3760400414466858, 1.0001210938703875, 1728048619123995592, 
-0.1415654420852661, 0.28965842723846436, 0.99750609589292, 1728048619153971931, 
-0.4215732216835022, 0.35979706048965454, 0.9551372658008473, 1728048619184534842, 
0.31460803747177124, -0.13285750150680542, 0.9197849546704588, 1728048619215581807, 
-0.005527496337890625, -0.09391200542449951, 1.024422917207318, 1728048619243814872, 
-0.1992008090019226, 0.20487970113754272, 0.955651942801202, 1728048619273817827, 
-0.0024088025093078613, 0.10999494791030884, 0.9433348377664573, 1728048619303695787, 
-0.2539299726486206, 0.1629825234413147, 0.955356551623499, 1728048619333670189, 
-0.15276753902435303, 0.37952691316604614, 0.9707936542839367, 1728048619363637947, 
-0.26602017879486084, -0.066356360912323, 0.9660878116534396, 1728048619393565090, 
0.27628374099731445, -0.35217320919036865, 0.9279132541771373, 1728048619425002536, 
-0.05470454692840576, -0.0757482647895813, 0.9470572456974113, 1728048619456983052, 
0.2348015308380127, 0.005456387996673584, 1.0917405282949022, 1728048619493375030, 
0.08808398246765137, 0.05491846799850464, 0.9858408962252553, 1728048619523331895, 
-0.49960649013519287, 0.30356234312057495, 0.9713259680061992, 1728048619553301618, 
0.2699927091598511, 0.592926561832428, 0.9197916119855979, 1728048619585154714, 
-0.3611147999763489, 0.18730992078781128, 0.9334852280688073, 1728048619616519002, 
0.04969489574432373, -0.3016897439956665, 1.0834341052714898, 1728048619643179693, 
-0.13938438892364502, -0.3908624053001404, 0.9756614892064299, 1728048619673082769, 
0.2952607274055481, -0.021161556243896484, 0.9714166940849294, 1728048619703061794, 
-0.19982832670211792, 0.6409925818443298, 0.9554610193027249, 1728048619732966467, 
-0.0922541618347168, 0.570972204208374, 0.9553125075537466, 1728048619762937474, 
-0.32738059759140015, -0.023643076419830322, 0.962479592850026, 1728048619792898651, 
-0.10255205631256104, -0.4291413426399231, 0.9204384457397623, 1728048619824547157, 
0.17269933223724365, -0.22626274824142456, 0.9550052475303733, 1728048619855310209, 
-0.1033015251159668, 0.17955708503723145, 1.066519389547522, 1728048619882796824, 
0.4901886582374573, 0.3944798707962036, 0.9869635140053201, 1728048619912650230, 
0.057624101638793945, -0.18090808391571045, 0.8915881788621821, 1728048619934772589, 
0.19078034162521362, -0.17749041318893433, 1.0421756806550584, 1728048619972664955, 
-0.33215540647506714, 0.32603538036346436, 0.9434746167450121, 1728048620002522201, 
0.31113868951797485, -0.004595696926116943, 0.9193924235226419, 1728048620033022590, 
-0.16437065601348877, -0.14093035459518433, 0.8981745971149385, 1728048620064704268, 
0.4449809789657593, 0.21969890594482422, 1.0350424604396173, 1728048620092364974, 
-0.08465367555618286, 0.5359644889831543, 0.9455365676588484, 1728048620122336291, 
-0.11254143714904785, -0.04568749666213989, 0.9254697022070847, 1728048620152269266, 
-0.381827712059021, -0.5349314212799072, 0.9870204946406353, 1728048620181217324, 
0.48009687662124634, 0.15692007541656494, 0.9336878346523357, 1728048620212205103, 
-0.4087333083152771, 0.15826475620269775, 0.9416979185118346, 1728048620242117654, 
0.31269729137420654, 0.6995193958282471, 0.9398683856458319, 1728048620272626063, 
0.12292695045471191, 0.2693709135055542, 0.9246396946363097, 1728048620304578401, 
-0.4081677794456482, -0.3520476818084717, 1.0668071248622373, 1728048620332032247, 
0.14726591110229492, -0.26722466945648193, 1.0038407164976801, 1728048620360875065, 
0.43456196784973145, 0.6304405927658081, 0.8037683098325127, 1728048620384527918, 
-0.5688750743865967, 0.2121146321296692, 1.0326405692448546, 1728048620411916348, 
-0.11684858798980713, -0.16982263326644897, 0.9632477990782721, 1728048620441753934, 
0.022412478923797607, -0.24707889556884766, 0.9564692187811575, 1728048620471724820, 
-0.047834694385528564, 0.13932889699935913, 0.9446433079482395, 1728048620501668828, 
0.2924741506576538, 0.07194817066192627, 0.9247083966275085, 1728048620531647202, 
0.059743285179138184, 0.23543697595596313, 0.9211021972289941, 1728048620561617368, 
-0.5328980088233948, 0.2423853874206543, 0.9106104988528559, 1728048620592669434, 
0.03900569677352905, 0.16529399156570435, 0.8945315876953751, 1728048620624579198, 
-0.03281646966934204, -0.26785802841186523, 1.0456270184258583, 1728048620651640734, 
-0.0950850248336792, -0.02215731143951416, 0.9697259524387952, 1728048620681530164, 
-0.18631720542907715, -0.027122139930725098, 0.8815199560280439, 1728048620703576047, 
0.32444608211517334, 0.20071876049041748, 1.00686006125396, 1728048620731608470, 
-0.12147051095962524, 0.12492865324020386, 0.9396685874556182, 1728048620771438685, 
0.09463220834732056, -0.0382688045501709, 0.9569496010463809, 1728048620801425264, 
-0.5238839983940125, -0.2567545771598816, 0.8999609344187899, 1728048620832599627, 
0.28878647089004517, 0.12866008281707764, 0.8798023949984886, 1728048620864127787, 
-0.3020774722099304, 0.20685642957687378, 1.0105458117919122, 1728048620891430129, 
-0.06449371576309204, 0.23429542779922485, 0.9603477485910826, 1728048620921269365, 
0.5060546398162842, 0.036995887756347656, 0.9648601996524736, 1728048620951268212, 
-0.6814497113227844, -0.23036903142929077, 0.9274886824611668, 1728048620981299473, 
0.3491412401199341, -0.058470845222473145, 0.9315485480273684, 1728048621011311371, 
-0.5906873345375061, 0.2444525957107544, 0.9873261700533227, 1728048621041414956, 
0.07222145795822144, 0.6343151926994324, 0.9737614899467573, 1728048621072675584, 
-0.12007230520248413, 0.40121644735336304, 0.9528892739277124, 1728048621102710087, 
-0.4283825159072876, -0.2832009196281433, 1.0158394150676366, 1728048621130214122, 
-0.036067306995391846, -0.3542690873146057, 0.9202270235941762, 1728048621160212635, 
0.032982826232910156, 0.12966322898864746, 0.8964847579541178, 1728048621191113176, 
-0.004690110683441162, 0.40445005893707275, 0.9232177423227853, 1728048621221153748, 
0.0792245864868164, 0.17633938789367676, 0.9688390081270726, 1728048621250551436, 
-0.3762121796607971, 0.0005818605422973633, 0.9509214075516431, 1728048621280721289, 
-0.02540600299835205, -0.04965251684188843, 0.8638919293547324, 1728048621313197590, 
0.05711454153060913, -0.12942975759506226, 1.0286143177893305, 1728048621340339954, 
0.14008605480194092, 0.18790405988693237, 0.8960727985369832, 1728048621370277079, 
-0.14569848775863647, 0.2549566626548767, 0.9414722037782229, 1728048621399238966, 
0.3993852734565735, -0.08977651596069336, 0.8984046786848182, 1728048621430149252, 
-0.33920419216156006, 0.23519784212112427, 0.9102874634223413, 1728048621460151804, 
0.18175053596496582, 0.42624902725219727, 0.9050120559174484, 1728048621490119694, 
-0.19667589664459229, 0.012697339057922363, 0.8900551023462875, 1728048621520692010, 
-0.4770650863647461, -0.2725163698196411, 0.8601994141568762, 1728048621552501548, 
-0.4056209325790405, 0.06499862670898438, 0.999709829921667, 1728048621580282181, 
0.012719452381134033, 0.26559340953826904, 0.9257092089896611, 1728048621610062321, 
0.2466239333152771, -0.012002646923065186, 0.9625477807930573, 1728048621639889232, 
0.022122681140899658, 0.21467119455337524, 0.9564800739825217, 1728048621669832378, 
0.053770601749420166, -0.0051038265228271484, 0.9457722994757327, 1728048621699752056, 
-0.46959787607192993, -0.07418441772460938, 0.9263915276433233, 1728048621729638519, 
-0.2557549476623535, 0.31826359033584595, 0.8616445126211344, 1728048621761079229, 
-0.08641356229782104, 0.45884108543395996, 0.8891657552402463, 1728048621792674058, 
0.029243052005767822, 0.10572320222854614, 1.0283107447882167, 1728048621819507745, 
-0.108883798122406, -0.09666579961776733, 0.9051760361961362, 1728048621849415350, 
-0.16575956344604492, -0.4037560820579529, 0.9160185312228261, 1728048621879408489, 
-0.38557350635528564, 0.037893712520599365, 0.9243985572007025, 1728048621909344570, 
0.2407364845275879, 0.661514937877655, 0.9191288225845943, 1728048621939342489, 
-0.12594401836395264, 0.3451141119003296, 0.8885205322834546, 1728048621969367266, 
-0.28167158365249634, -0.3128702640533447, 0.8620225907624297, 1728048622001053703, 
0.12636464834213257, -0.24106132984161377, 0.906222342524509, 1728048622032147345, 
-0.13012611865997314, 0.04894345998764038, 1.0061126513007086, 1728048622068986700, 
0.3593406677246094, 0.19376647472381592, 0.9379381992802831, 1728048622097961119, 
-0.3084232211112976, 0.09322977066040039, 0.9123355445842782, 1728048622128928637, 
0.04326832294464111, -0.07739996910095215, 0.8936703810603358, 1728048622160858105, 
0.1366456151008606, 0.09358179569244385, 0.9044071415357119, 1728048622191509872, 
-0.23713481426239014, 0.3030462861061096, 0.9651002516577242, 1728048622218796798, 
-0.20007002353668213, 0.15177291631698608, 0.8886544619389349, 1728048622248703550, 
0.15821200609207153, -0.040749430656433105, 0.8206723705457486, 1728048622270786409, 
-0.25781166553497314, 0.2834520936012268, 0.9507763702409855, 1728048622308673310, 
0.4163820743560791, 0.5046728849411011, 0.8861978302524023, 1728048622338591193, 
-0.44700121879577637, -0.07143610715866089, 0.9101851184859865, 1728048622369048137, 
-0.05284440517425537, -0.013548195362091064, 0.8800609332706945, 1728048622401508177, 
-0.336362361907959, -0.11978679895401001, 1.0649426868709118, 1728048622428476174, 
-0.13967090845108032, 0.46126675605773926, 0.9074305863889659, 1728048622458404847, 
0.0014669299125671387, 0.44892269372940063, 0.8967886861255359, 1728048622488332264, 
-0.2900933027267456, -0.07359892129898071, 0.8981803343672092, 1728048622518263381, 
0.029982149600982666, -0.2213141918182373, 0.9199519519440957, 1728048622547231988, 
-0.23886531591415405, -0.02778613567352295, 0.8988456692878745, 1728048622577216206, 
-0.14617085456848145, 0.263976514339447, 0.8340710905418485, 1728048622609349476, 
-0.12882888317108154, 0.552939772605896, 0.8845556740018007, 1728048622640785319, 
-0.22127217054367065, 0.23514628410339355, 1.05083661428498, 1728048622667049076, 
-0.04177373647689819, -0.11879384517669678, 0.8899818994184912, 1728048622697953612, 
-0.09988933801651001, -0.1925153136253357, 0.9324690422344116, 1728048622727956612, 
0.4793679118156433, 0.03550523519515991, 0.9145565837346697, 1728048622757874380, 
-0.4046732783317566, 0.31919145584106445, 0.8890053001875668, 1728048622788026922, 
0.3904617428779602, 0.5832346677780151, 0.8905465848066029, 1728048622817825803, 
-0.6225103139877319, -0.09171044826507568, 0.8494669090107315, 1728048622849534260, 
0.06975579261779785, -0.2561591863632202, 0.8707116147078074, 1728048622880823222, 
0.055345237255096436, 0.2590183615684509, 1.0058048433026274, 1728048622907631316, 
0.04468357563018799, 0.3662843108177185, 0.8931030498389957, 1728048622937583578, 
-0.1279301643371582, 0.3636014461517334, 0.90286356308132, 1728048622967510898, 
0.15394175052642822, 0.24261480569839478, 0.9166971942743006, 1728048622997494948, 
-0.6795347332954407, -0.32942724227905273, 0.9021501647321573, 1728048623027396010, 
0.09726893901824951, 0.18201637268066406, 0.8886337674886985, 1728048623057481275, 
0.2874739170074463, 0.35281044244766235, 0.8960821596037286, 1728048623088968857, 
0.0023646950721740723, 0.2798711061477661, 0.8938874372131789, 1728048623120261927, 
0.1916346549987793, 0.09828728437423706, 1.0353585992226213, 1728048623146252540, 
-0.19226592779159546, 0.1569347381591797, 0.8444479089079469, 1728048623177189067, 
-0.33022451400756836, -0.278384268283844, 0.8908328592719873, 1728048623207087561, 
0.18694454431533813, 0.04855924844741821, 0.9147163516587439, 1728048623237081118, 
0.16082090139389038, 0.8261067271232605, 0.8833270740339801, 1728048623267005804, 
-0.2982015013694763, 0.6877224445343018, 0.8579951417709357, 1728048623297343902, 
-0.14946001768112183, -0.281144917011261, 0.850334943747252, 1728048623328886233, 
-0.12016481161117554, -0.6563770174980164, 0.9073714994856023, 1728048623358958475, 
0.1617836356163025, -0.6812516450881958, 0.9293325458102671, 1728048623396787876, 
-0.4123086929321289, 0.4608631730079651, 0.8933380122105157, 1728048623426820157, 
0.3466123342514038, 0.6930873990058899, 0.9097632226240944, 1728048623457269748, 
-0.5161991119384766, 0.16322928667068481, 0.8448505597710497, 1728048623489362654, 
-0.27418190240859985, 0.0320928692817688, 0.9689281993821787, 1728048623516691521, 
-0.44450950622558594, 0.0803910493850708, 0.8908779804534372, 1728048623546499715, 
0.3974580764770508, 0.018226802349090576, 0.9014519737668988, 1728048623576510802, 
-0.07815629243850708, 0.14703112840652466, 0.9108184808887191, 1728048623606458518, 
-0.08132022619247437, 0.2281234860420227, 0.8731001972597794, 1728048623636380217, 
-0.08970171213150024, 0.291068971157074, 0.8567438711031409, 1728048623666334809, 
0.14058953523635864, -0.004698753356933594, 0.8604177928310334, 1728048623696741767, 
-0.09480220079421997, -0.04625517129898071, 0.825449698002872, 1728048623729034612, 
0.10216319561004639, 0.19962090253829956, 1.0173973600008415, 1728048623755253937, 
-0.30548280477523804, 0.7568859457969666, 0.8627345136284552, 1728048623786132668, 
0.5448392629623413, 0.15804344415664673, 0.8825463942477062, 1728048623816071229, 
-0.7045618891716003, -0.4659263491630554, 0.8722604988403184, 1728048623846052013, 
0.03329533338546753, 0.30928605794906616, 0.8736701292618637, 1728048623876003062, 
-0.32447999715805054, 0.17910021543502808, 0.8830117553703339, 1728048623905962378, 
-0.11838489770889282, 0.5095617175102234, 0.840414452553176, 1728048623937150824, 
-0.10247921943664551, 0.3596881031990051, 0.8435714677106582, 1728048623968986350, 
-0.2536334991455078, -0.1876477599143982, 1.0090738077874948, 1728048623995807320, 
-0.14569604396820068, -0.42420852184295654, 0.9025807923860594, 1728048624025733648, 
0.6012305617332458, 0.3197993040084839, 0.8828858779157808, 1728048624055732721, 
0.21276462078094482, 0.8993702530860901, 0.8648176325986436, 1728048624085592513, 
-0.3652729392051697, 0.1920822262763977, 0.8594371381568524, 1728048624115586709, 
-0.19907337427139282, -0.7125445008277893, 0.879491859539258, 1728048624145542988, 
0.23283249139785767, -0.035233914852142334, 0.8424203160674952, 1728048624176765156, 
-0.052478015422821045, 0.47805696725845337, 0.8051713921836728, 1728048624208880497, 
0.3265795111656189, 0.4674425721168518, 0.9961881707496417, 1728048624235360397, 
-0.39560699462890625, 0.23519247770309448, 0.8983627097483329, 1728048624265326078, 
0.13559001684188843, 0.07958364486694336, 0.8819174016387672, 1728048624295305078, 
-0.10710197687149048, -0.01421421766281128, 0.889498859318667, 1728048624324221478, 
-0.15452754497528076, 0.20499157905578613, 0.8417386218139826, 1728048624355207421, 
-0.06321859359741211, 0.27558135986328125, 0.8732860938162788, 1728048624385262657, 
0.508431613445282, 0.3137456774711609, 0.8460998389545029, 1728048624415801134, 
-0.43672358989715576, 0.180131733417511, 0.8300870538696912, 1728048624447125886, 
0.08352261781692505, 0.07298600673675537, 0.9294539715463257, 1728048624475070003, 
0.016595184803009033, -0.1357852816581726, 0.8712584657508677, 1728048624505051034, 
0.1824955940246582, 0.5023812055587769, 0.850817520108588, 1728048624535001922, 
0.13124406337738037, 0.6274406909942627, 0.8621811992908123, 1728048624564911060, 
0.016103148460388184, -0.3743799328804016, 0.8961352913082015, 1728048624594811496, 
-0.36331331729888916, -0.3090054392814636, 0.876476652723152, 1728048624624854002, 
0.3491032123565674, 0.13180029392242432, 0.8135046353654559, 1728048624656796854, 
-0.035080552101135254, 0.9212870001792908, 0.9502235582466623, 1728048624684681221, 
-0.3162009119987488, 0.5087827444076538, 0.9025179691066187, 1728048624714880347, 
-0.03971230983734131, 0.6818258166313171, 0.90549341322695, 1728048624744716521, 
-0.23118144273757935, 0.002801239490509033, 0.8401194553345563, 1728048624774635614, 
0.05822336673736572, -0.5295052528381348, 0.8361276147621068, 1728048624804495514, 
-0.015745162963867188, -0.24056756496429443, 0.8712481323573966, 1728048624834543321, 
0.48793864250183105, 0.9384555220603943, 0.8631410377744781, 1728048624864824678, 
-0.4959072470664978, 0.8361614346504211, 0.8028895446762985, 1728048624896218007, 
-0.21018069982528687, -0.30010151863098145, 0.899216042489175, 1728048624924284360, 
-0.4205043315887451, -0.684384822845459, 0.8944786319512119, 1728048624954314024, 
0.39815932512283325, 0.1650969386100769, 0.8930948551069607, 1728048624984102313, 
0.06620848178863525, 0.6865747570991516, 0.8585322052099624, 1728048625014060770, 
0.16444814205169678, 0.5402723550796509, 0.8488251368044771, 1728048625043985692, 
-0.33723896741867065, -0.28026002645492554, 0.8687988209729947, 1728048625074003342, 
-0.17668426036834717, -0.29274898767471313, 0.8578021420451204, 1728048625104822464, 
-0.19418829679489136, 0.29261064529418945, 0.8062494978315939, 1728048625137263793, 
0.5243721604347229, 0.2614085078239441, 0.9755555988074531, 1728048625163901419, 
-0.10030412673950195, 0.2377912402153015, 0.8573814001985438, 1728048625193783690, 
0.20920473337173462, 0.24819278717041016, 0.8323299920679424, 1728048625223710192, 
-0.7005534172058105, -0.4525563716888428, 0.8211364790864729, 1728048625253702242, 
0.07083314657211304, -0.04739469289779663, 0.832213114177839, 1728048625283613665, 
-0.07702380418777466, 0.6725922226905823, 0.8380764143619508, 1728048625313602498, 
-0.05658698081970215, 0.40507078170776367, 0.8497545416058081, 1728048625344245428, 
0.14686638116836548, -0.2550070881843567, 0.8248818068626151, 1728048625376268554, 
-0.15322273969650269, -0.4255988597869873, 0.949099328401715, 1728048625403509632, 
0.22195923328399658, 0.27546799182891846, 0.8401610502166548, 1728048625433398314, 
-0.1022481918334961, 0.7067302465438843, 0.8595618811193857, 1728048625463289755, 
-0.06892889738082886, 0.3555935025215149, 0.882859988071137, 1728048625493300052, 
0.030790984630584717, -0.4963400959968567, 0.883048682629053, 1728048625523207913, 
-0.4554959535598755, -0.415258526802063, 0.8931714960754945, 1728048625552206989, 
0.716250479221344, 0.26039689779281616, 0.7804410105458832, 1728048625585094853, 
-0.3732302188873291, 0.7412419319152832, 0.841331621587943, 1728048625615666282, 
0.38645660877227783, 0.2738317847251892, 0.9131755921819589, 1728048625642959854, 
-0.592976450920105, -0.39221471548080444, 0.8110544907896663, 1728048625673090079, 
0.1691763997077942, -0.36467212438583374, 0.8283800992790682, 1728048625702908277, 
0.1767018437385559, 0.37602776288986206, 0.8466427739727252, 1728048625732917952, 
0.23730075359344482, 0.6461008191108704, 0.8356865868591944, 1728048625762834147, 
-0.497607946395874, 0.2675573229789734, 0.8448116031613475, 1728048625793318024, 
0.43845534324645996, -0.528060257434845, 0.8367235154180543, 1728048625824896730, 
-0.30571138858795166, -0.09728008508682251, 0.9456899300232972, 1728048625852711841, 
0.1259252429008484, 0.28472083806991577, 0.8601496940981213, 1728048625882614408, 
0.42322880029678345, 0.5873916745185852, 0.8187580930219255, 1728048625912558844, 
0.1463228464126587, -0.051938414573669434, 0.8341898564024383, 1728048625942525795, 
-0.4644661545753479, -0.41058218479156494, 0.8390144092760741, 1728048625972429774, 
0.016882717609405518, -0.087821364402771, 0.8365526571490703, 1728048626002426691, 
-0.012217402458190918, 0.6997876167297363, 0.8381150053724449, 1728048626032211985, 
0.22643142938613892, 0.44976329803466797, 0.779491880680728, 1728048626064842372, 
-0.14465057849884033, -0.34483450651168823, 0.9114669092409607, 1728048626092322245, 
0.021718144416809082, -0.24701851606369019, 0.8161235062640347, 1728048626122194068, 
-0.07398450374603271, -0.09782743453979492, 0.8156845647500467, 1728048626152113828, 
0.1148335337638855, 0.7972505688667297, 0.8401595355810281, 1728048626182136640, 
-0.17733198404312134, 0.5492848753929138, 0.8563632788201183, 1728048626212084210, 
-0.45557159185409546, -0.7699477076530457, 0.8811976851489007, 1728048626242006235, 
0.19560933113098145, -0.5362434983253479, 0.8548273831662898, 1728048626272833696, 
0.5531033873558044, 0.4229958653450012, 0.7862936356710308, 1728048626305526228, 
-0.2329128384590149, 0.8423795104026794, 0.954406893857146, 1728048626331875103, 
-0.007941067218780518, 0.07465064525604248, 0.8444926010773944, 1728048626361827789, 
-0.4889857769012451, -0.726894199848175, 0.8467008115521792, 1728048626391769296, 
-0.07820653915405273, -0.07586145401000977, 0.8133891358869746, 1728048626421795388, 
0.09255397319793701, 0.47214168310165405, 0.8078441460938668, 1728048626451762906, 
0.23400133848190308, 0.5915926098823547, 0.831258981797507, 1728048626481746656, 
-0.2854617238044739, -0.10709261894226074, 0.8116192669128283, 1728048626512908424, 
0.003405749797821045, -0.282407283782959, 0.767846909794704, 1728048626544885909, 
-0.13311225175857544, -0.08631008863449097, 0.9150736429627935, 1728048626571716354, 
0.14252203702926636, 0.3612075448036194, 0.8430774995726285, 1728048626601674932, 
0.014737129211425781, 0.17492890357971191, 0.8411018705488345, 1728048626631677747, 
0.21646255254745483, 0.11238974332809448, 0.8156086642288144, 1728048626661595532, 
-0.5724577307701111, -0.3160649538040161, 0.8241785155081247, 1728048626691761904, 
0.5468754768371582, 0.03579527139663696, 0.8315176003219855, 1728048626721579211, 
-0.22079509496688843, 0.3669630289077759, 0.7821089401964901, 1728048626753368444, 
-0.12623411417007446, 0.42084383964538574, 0.8065108355608859, 1728048626783680650, 
-0.02407658100128174, -0.27166110277175903, 0.8703764549411713, 1728048626811513152, 
0.14651042222976685, -0.30989962816238403, 0.8054260161188465, 1728048626841532023, 
-0.3600848913192749, 0.43579065799713135, 0.8199812024159431, 1728048626871479898, 
0.2883971333503723, 0.418761670589447, 0.8302739966637969, 1728048626901484953, 
-0.288749635219574, 0.0697891116142273, 0.8460269393085449, 1728048626931437907, 
0.5139453411102295, -0.4936301112174988, 0.8268562386291238, 1728048626961503600, 
-0.24083155393600464, -0.08492517471313477, 0.8001606844090525, 1728048626992898148, 
0.4788222312927246, 0.4917713403701782, 0.9029143395255257, 1728048627020349611, 
-0.3145546317100525, 0.3806796669960022, 0.7865142678192513, 1728048627050771608, 
-0.02831166982650757, -0.06082206964492798, 0.792606777182522, 1728048627080596640, 
-0.5770065188407898, -0.4812611937522888, 0.812749666683435, 1728048627110512592, 
-0.005893528461456299, -0.06190913915634155, 0.8263402997707372, 1728048627140494541, 
0.297229528427124, 0.7274504899978638, 0.8185989021891265, 1728048627170450020, 
0.0580061674118042, 0.31234848499298096, 0.7725088261599898, 1728048627201437653, 
-0.33412104845046997, -0.47078168392181396, 0.7682538566577958, 1728048627232913548, 
0.08153975009918213, -0.3087642192840576, 0.8909136117092268, 1728048627260311452, 
-0.05159515142440796, 0.44484615325927734, 0.8259596662507167, 1728048627290199894, 
0.04335850477218628, 0.504970371723175, 0.8398146541455216, 1728048627320199116, 
-0.17684406042099, -0.3395889401435852, 0.8433014684832717, 1728048627350158007, 
0.4703890085220337, -0.34940922260284424, 0.8351677942038045, 1728048627380061816, 
-0.6595888733863831, 0.3087719678878784, 0.7872800817372372, 1728048627410031347, 
0.46530795097351074, 0.1946893334388733, 0.7573225853258821, 1728048627441071399, 
-0.35293418169021606, -0.021106958389282227, 0.7636010487077581, 1728048627472956813, 
-0.07893973588943481, 0.23254656791687012, 0.8953142862457149, 1728048627499964641, 
-0.09348243474960327, -0.2662205100059509, 0.8039929772936577, 1728048627529802466, 
0.0025873780250549316, -0.07492786645889282, 0.7899544519575913, 1728048627559795786, 
-0.11043184995651245, 0.5100070834159851, 0.7993117951592768, 1728048627589743094, 
-0.10843223333358765, 0.07135134935379028, 0.824239076049979, 1728048627619665829, 
0.1355217695236206, -0.165238618850708, 0.8096291566143806, 1728048627649670372, 
-0.22010821104049683, -0.20207113027572632, 0.7575529450730808, 1728048627681065421, 
-0.003846406936645508, 0.4834504723548889, 0.7441561236732435, 1728048627712811524, 
0.24639326333999634, 0.3736830949783325, 0.9021632787302557, 1728048627739602163, 
-0.6492680311203003, -0.3418647050857544, 0.8224468426260771, 1728048627769518977, 
0.24041736125946045, -0.33635061979293823, 0.8200380700230272, 1728048627799442320, 
-0.44030797481536865, 0.2116716504096985, 0.7960937967779613, 1728048627829708153, 
0.44870829582214355, -0.34395068883895874, 0.8221679952898909, 1728048627859532424, 
-0.0599137544631958, 0.6152351498603821, 0.7956586334754732, 1728048627889496950, 
-0.24658465385437012, 0.49340832233428955, 0.7519257883025428, 1728048627921139139, 
-0.12744760513305664, -0.2585551142692566, 0.7973222238228966, 1728048627951567161, 
-0.17216801643371582, -0.3805180788040161, 0.8673709541210595, 1728048627989054719, 
0.0495600700378418, -0.4366498589515686, 0.8058166845013097, 1728048628019009864, 
-0.015125095844268799, 0.3200833201408386, 0.7936616305258432, 1728048628049416776, 
0.14195090532302856, 0.6894912719726562, 0.7789793924984935, 1728048628080234962, 
-0.03339731693267822, -0.015667259693145752, 0.8314043480547587, 1728048628108949884, 
-0.25978904962539673, -0.3865552544593811, 0.8021212782853752, 1728048628138761480, 
-0.04010087251663208, 0.08957397937774658, 0.7921575386893103, 1728048628168761891, 
0.10827559232711792, 0.19203931093215942, 0.7667095648825366, 1728048628198731067, 
0.06004011631011963, 0.19213813543319702, 0.7506233498826589, 1728048628228632577, 
-0.3314802646636963, 0.037367165088653564, 0.7782786800106261, 1728048628258632042, 
-0.2002263069152832, -0.17131400108337402, 0.7863676900855279, 1728048628289545140, 
-0.2720317840576172, 0.16495239734649658, 0.7494523692250115, 1728048628321337329, 
-0.05761629343032837, 0.2004113793373108, 0.8847810221574843, 1728048628348481655, 
-0.4007489085197449, -0.07585203647613525, 0.826004798674145, 1728048628378393057, 
0.5877782106399536, 0.18095791339874268, 0.8173510733301529, 1728048628408309895, 
-0.49369120597839355, -0.1447666883468628, 0.8247572362348643, 1728048628437275364, 
0.31092333793640137, 0.2145659327507019, 0.7904191306178597, 1728048628467224102, 
-0.017872393131256104, 0.3596058487892151, 0.7619919931292253, 1728048628498187031, 
-0.047248780727386475, -0.2674601674079895, 0.7510998623064322, 1728048628529082239, 
-0.14348626136779785, -0.3101843595504761, 0.7071895418078116, 1728048628561295417, 
-0.002466738224029541, 0.14067518711090088, 0.8538555329376615, 1728048628588031022, 
0.061139583587646484, 0.6131600141525269, 0.7692288141456026, 1728048628617990237, 
-0.5871519446372986, 0.012527048587799072, 0.7658529533925554, 1728048628647901542, 
-0.2179943323135376, -0.5004642605781555, 0.7703777092699055, 1728048628677866238, 
-0.06884247064590454, 0.06645667552947998, 0.7772534555534909, 1728048628707850632, 
-0.24225711822509766, 0.6508156657218933, 0.788821592001116, 1728048628737800570, 
0.1634579300880432, 0.15478068590164185, 0.787001568296162, 1728048628769457089, 
-0.034152209758758545, -0.29667985439300537, 0.7970335525834774, 1728048628800696063, 
0.07232654094696045, -0.08117198944091797, 0.8962764126912315, 1728048628827670836, 
0.11966878175735474, 0.3701665997505188, 0.7696875608774475, 1728048628857606290, 
0.15942376852035522, 0.08046621084213257, 0.7681055298890029, 1728048628887547609, 
-0.41900700330734253, -0.24089080095291138, 0.7776156170137829, 1728048628917449975, 
0.01348811388015747, 0.3407186269760132, 0.7760996075670036, 1728048628947418309, 
-0.19054144620895386, 0.235947847366333, 0.7551132841114856, 1728048628977417656, 
-0.22701960802078247, -0.32386231422424316, 0.7630359838830406, 1728048629007272260, 
0.1076730489730835, 0.09927034378051758, 0.7474284070986599, 1728048629038877737, 
0.4439902901649475, 0.40577685832977295, 0.810159525495168, 1728048629067343384, 
-0.1407262086868286, 0.19055724143981934, 0.7428996609359363, 1728048629097130190, 
-0.2304655909538269, -0.3228885531425476, 0.7431809532665639, 1728048629127126305, 
-0.1175660490989685, -0.013551831245422363, 0.766824721650149, 1728048629157075335, 
0.2843490242958069, 0.4382919669151306, 0.7498908125254785, 1728048629187042446, 
-0.759273886680603, -0.18436437845230103, 0.745211319353036, 1728048629217319308, 
0.406608521938324, 0.21272408962249756, 0.7331605583072317, 1728048629249511699, 
-0.3314899802207947, 0.4386754035949707, 0.8938073600639399, 1728048629276904938, 
-0.33613044023513794, -0.1240113377571106, 0.7989687782207913, 1728048629306838715, 
0.027353286743164062, -0.3907528519630432, 0.7841617630716444, 1728048629336767616, 
-0.09282690286636353, 0.18772989511489868, 0.7804375124861046, 1728048629366718076, 
-0.03242015838623047, 0.47518599033355713, 0.8017876093934675, 1728048629396691364, 
-0.016804039478302002, 0.10580962896347046, 0.8054449070213747, 1728048629426633799, 
-0.0023849010467529297, -0.32346922159194946, 0.7530713575436443, 1728048629457459535, 
-0.030144453048706055, -0.0015815496444702148, 0.6949812613847697, 1728048629489091139, 
-0.2585134506225586, 0.2553115487098694, 0.8173215428560663, 1728048629516508186, 
0.11886018514633179, 0.42334622144699097, 0.7761295216709155, 1728048629546422646, 
-0.5795190334320068, 0.064311683177948, 0.7743580978399542, 1728048629576431346, 
-0.16053253412246704, -0.22789841890335083, 0.7815376880727661, 1728048629606304598, 
-0.2052537202835083, 0.05831599235534668, 0.7677804750522963, 1728048629636279816, 
-0.08642339706420898, 0.33903539180755615, 0.7638547240418639, 1728048629666399971, 
0.12625151872634888, 0.12417638301849365, 0.7538092982002764, 1728048629697454832, 
-0.22810548543930054, 0.11686950922012329, 0.7208453771794336, 1728048629729477963, 
0.11415570974349976, 0.061308860778808594, 0.8245838021100939, 1728048629756082082, 
-0.4596481919288635, -0.10092288255691528, 0.7390343008906136, 1728048629786008604, 
-0.11797183752059937, 0.16066193580627441, 0.7669862937878832, 1728048629815957916, 
0.07115793228149414, 0.01967000961303711, 0.7563399567452013, 1728048629845914615, 
-0.0822979211807251, 0.1728076934814453, 0.7297887523056008, 1728048629875821148, 
-0.10587960481643677, 0.013665914535522461, 0.7578186611176159, 1728048629905852258, 
-0.10067111253738403, 0.2110041379928589, 0.7353179343048661, 1728048629937107003, 
-0.023591160774230957, 0.10819417238235474, 0.7152481562695272, 1728048629968450205, 
-0.36224836111068726, -0.1450638771057129, 0.8354949732974069, 1728048629995790382, 
0.12633287906646729, 0.24399757385253906, 0.7756602232719406, 1728048630025623940, 
-0.16083669662475586, 0.45680028200149536, 0.7953509477164694, 1728048630055558236, 
-0.2201979160308838, 0.10117143392562866, 0.7907210270136766, 1728048630085529708, 
-0.44199615716934204, -0.32985609769821167, 0.7685548102393863, 1728048630115503607, 
0.08757460117340088, -0.19757354259490967, 0.7524825109136385, 1728048630145454345, 
-0.07864010334014893, 0.7556843161582947, 0.6828332166753508, 1728048630178119018, 
-0.2631199359893799, 0.29109299182891846, 0.7880473431916173, 1728048630206665954, 
-0.0070188045501708984, -0.5097309350967407, 0.813121850530874, 1728048630234229695, 
-0.05167055130004883, 0.1392332911491394, 0.7224894802165683, 1728048630265201681, 
0.09444582462310791, 0.6529987454414368, 0.7419192714023495, 1728048630295146656, 
-0.007210969924926758, 0.04190546274185181, 0.740224350029924, 1728048630325144674, 
0.049464404582977295, -0.302473783493042, 0.7502153997883361, 1728048630355277952, 
-0.47651273012161255, 0.19207751750946045, 0.7598987790646994, 1728048630385286221, 
0.4289953112602234, 0.43888217210769653, 0.7279459659634064, 1728048630417039401, 
-0.07290828227996826, 0.02853262424468994, 0.8158546521077122, 1728048630445025055, 
0.02588200569152832, -0.2251523733139038, 0.7486040882615547, 1728048630474849409, 
-0.1835697889328003, 0.3496991991996765, 0.7404326706476492, 1728048630504813768, 
0.30448830127716064, 0.2975601553916931, 0.7516974256678709, 1728048630534776603, 
-0.29570651054382324, 0.012531101703643799, 0.7369098263299717, 1728048630564709834, 
0.030792951583862305, 0.16463536024093628, 0.7377349349482066, 1728048630594679317, 
-0.0389937162399292, -0.14352279901504517, 0.7426059508330507, 1728048630625375744, 
0.032958030700683594, 0.17501407861709595, 0.6858475759091013, 1728048630657629819, 
-0.29516667127609253, 0.5007787942886353, 0.8066022491597413, 1728048630684634265, 
0.1396806836128235, 0.04831975698471069, 0.7703534581643425, 1728048630714458459, 
-0.4005926251411438, -0.23903119564056396, 0.7570966126085485, 1728048630743432045, 
-0.015578985214233398, -0.04544878005981445, 0.6995459018174063, 1728048630774394296, 
0.10045015811920166, 0.9680602550506592, 0.7663058166954028, 1728048630804321774, 
0.04838377237319946, 0.2444210648536682, 0.7764854642328958, 1728048630834260077, 
-0.6159907579421997, -0.7452669739723206, 0.720635457391122, 1728048630865083417, 
0.02427506446838379, -0.06653785705566406, 0.6781752989637558, 1728048630897082596, 
0.04738771915435791, 0.9131529927253723, 0.8080074533704327, 1728048630924199769, 
0.20332974195480347, 0.3946567177772522, 0.7578950818837034, 1728048630954136431, 
-0.6823142766952515, -0.4497295022010803, 0.7556924345316582, 1728048630984081819, 
-0.2862200140953064, -0.6970941424369812, 0.7878129610293958, 1728048631013214214, 
-0.14683711528778076, -0.06481289863586426, 0.7357503393913326, 1728048631043234040, 
0.5895642042160034, 0.6438393592834473, 0.6991165600024527, 1728048631073946053, 
-0.3585358262062073, 0.45934057235717773, 0.7072436460703945, 1728048631105511568, 
0.04440563917160034, -0.2068570852279663, 0.6982840140653573, 1728048631136630399, 
-0.374387264251709, -0.30438071489334106, 0.7855608064031508, 1728048631163727813, 
0.012640058994293213, 0.3561340570449829, 0.7234303115566652, 1728048631193660752, 
-0.01599717140197754, 0.4715840220451355, 0.7388601710643152, 1728048631223609667, 
-0.05970454216003418, -0.17335325479507446, 0.729504351869998, 1728048631253561190, 
-0.06033480167388916, -0.024369478225708008, 0.7097743167559192, 1728048631283779106, 
0.04404646158218384, 0.031750619411468506, 0.7296543497239788, 1728048631313486558, 
-0.5987295508384705, 0.45329588651657104, 0.7046279815076825, 1728048631345107135, 
0.36260879039764404, 0.19999277591705322, 0.7467267956836382, 1728048631375483435, 
-0.6192721724510193, -0.24263060092926025, 0.8139009357941539, 1728048631403301403, 
0.42425328493118286, 0.21776050329208374, 0.7220363248573942, 1728048631433572203, 
-0.2315995693206787, 0.503299355506897, 0.7431114696599597, 1728048631462227001, 
-0.19570279121398926, 0.0614052414894104, 0.7064296643573018, 1728048631493186597, 
0.0879257321357727, -0.2752361297607422, 0.7214054517369387, 1728048631523100514, 
-0.14020347595214844, 0.05882209539413452, 0.6948779198042198, 1728048631553590282, 
0.06974667310714722, 0.850691020488739, 0.682784194528602, 1728048631585322557, 
0.26200342178344727, 0.10491138696670532, 0.804071889883521, 1728048631612980654, 
-0.6894574165344238, -0.6512073278427124, 0.7388313365867836, 1728048631642884393, 
-0.04142886400222778, 0.034581899642944336, 0.7431573029764265, 1728048631672842814, 
0.6298250555992126, 0.9402718544006348, 0.7432366698122951, 1728048631702778042, 
-0.25296348333358765, 0.3301621675491333, 0.7247344188107157, 1728048631732781841, 
-0.1386823058128357, -0.6573536992073059, 0.7320808547782229, 1728048631762702279, 
0.003141164779663086, -0.12480109930038452, 0.7689549883044159, 1728048631792214969, 
0.1945602297782898, 0.9383923411369324, 0.6741463923196035, 1728048631825155879, 
0.034119367599487305, 0.4500960111618042, 0.7618425915467825, 1728048631852617017, 
-0.2235206961631775, -0.6233582496643066, 0.7422515225019458, 1728048631881486871, 
-0.058430373668670654, -0.03072303533554077, 0.7015704767207074, 1728048631912422899, 
-0.3981654644012451, 0.6108283400535583, 0.7167627141726229, 1728048631942344534, 
0.21155095100402832, 0.5105021595954895, 0.7212847248689567, 1728048631972324746, 
0.43538135290145874, -0.335814893245697, 0.7202638778399774, 1728048632002342156, 
-0.3117977976799011, 0.012006998062133789, 0.682314748559741, 1728048632033369681, 
0.2284078598022461, 0.491213321685791, 0.657942229360419, 1728048632065592594, 
0.13881582021713257, 0.22838902473449707, 0.8034884104360004, 1728048632092181144, 
-0.07390052080154419, 0.030216991901397705, 0.7113211146492172, 1728048632122048211, 
-0.4808870553970337, -0.046138226985931396, 0.7177612710053631, 1728048632152048023, 
0.3745127320289612, 0.2081325650215149, 0.717122664926712, 1728048632182074532, 
-0.5367848873138428, 0.5756567716598511, 0.7041491316533732, 1728048632212036431, 
0.15521466732025146, -0.0036057233810424805, 0.6902580328379201, 1728048632242071277, 
-0.17697787284851074, -0.37806493043899536, 0.7024089096813042, 1728048632273283176, 
0.15647435188293457, 0.3813481330871582, 0.7074972330758573, 1728048632304960836, 
-0.2083601951599121, 0.6082444190979004, 0.7938644378938425, 1728048632332030433, 
0.12271887063980103, -0.21483391523361206, 0.7144164532703463, 1728048632362002506, 
-0.19582128524780273, -0.6486866474151611, 0.7138914861587276, 1728048632391821504, 
0.2370585799217224, 0.6380428075790405, 0.6976911634979881, 1728048632421826708, 
-0.48901015520095825, 0.9997894167900085, 0.711250513576271, 1728048632451834430, 
0.11702883243560791, -0.3824392557144165, 0.7116983827730121, 1728048632481877300, 
-0.36212170124053955, -0.5435324311256409, 0.6628127284718246, 1728048632513830555, 
0.057331383228302, 0.6213715076446533, 0.7183596790742504, 1728048632543953419, 
0.09052562713623047, 0.7992047071456909, 0.7985177844723808, 1728048632571810769, 
-0.3204490542411804, -0.6771533489227295, 0.7203408678474396, 1728048632601782582, 
0.04259711503982544, -0.46071499586105347, 0.7066947741714878, 1728048632631789187, 
0.18024033308029175, 0.6814296841621399, 0.7326865126228377, 1728048632661694860, 
0.010014474391937256, 0.7949953675270081, 0.7202509049155316, 1728048632691718332, 
-0.19244062900543213, -0.5021194815635681, 0.6950423327795365, 1728048632721724586, 
-0.23841416835784912, -0.5694147348403931, 0.6604115900434528, 1728048632753390927, 
0.026037633419036865, 0.7961091995239258, 0.7355778259932965, 1728048632781008401, 
0.22122007608413696, 0.8038556575775146, 0.6925692050483363, 1728048632810903305, 
-0.24693697690963745, -0.7551259398460388, 0.7239351029390714, 1728048632840862686, 
-0.08372914791107178, -0.25027400255203247, 0.7076102719949513, 1728048632870856397, 
0.04433906078338623, 0.6621243357658386, 0.6717254306379479, 1728048632900792164, 
0.11672824621200562, 0.36519306898117065, 0.6968104895075125, 1728048632930769305, 
0.017218947410583496, -0.21208369731903076, 0.6952352146452718, 1728048632961748058, 
-0.07378095388412476, -0.31594306230545044, 0.6554958907459014, 1728048632993265476, 
0.06163382530212402, 0.5989457368850708, 0.7309679855623683, 1728048633020913753, 
0.13675081729888916, 0.4966961145401001, 0.7017166879583446, 1728048633049655306, 
-0.6188565492630005, -0.6161813735961914, 0.6750727598112278, 1728048633080416842, 
0.43824630975723267, -0.08307462930679321, 0.7062195379697485, 1728048633110433667, 
0.019648849964141846, 0.5371978878974915, 0.7117209395002636, 1728048633140356143, 
0.5372024774551392, 0.5892843008041382, 0.6907124800077049, 1728048633170308268, 
-0.3709768056869507, -0.4540170431137085, 0.6510346855839059, 1728048633201791943, 
0.12661701440811157, -0.5043568015098572, 0.695084511508906, 1728048633232241103, 
-0.3603038191795349, 0.9056783318519592, 0.7578904909136922, 1728048633260167997, 
0.14861255884170532, 0.6543858051300049, 0.7166016194185975, 1728048633290131155, 
-0.3219362497329712, -0.6503174304962158, 0.7128303428273459, 1728048633320031496, 
0.45604586601257324, -0.3941435217857361, 0.7024964537824164, 1728048633350009586, 
0.059619784355163574, 0.6615007519721985, 0.680496588331357, 1728048633379979527, 
-0.6832330226898193, 0.3132418394088745, 0.6481902264711834, 1728048633409955813, 
0.8554703593254089, -0.4944577217102051, 0.6508610603172422, 1728048633441422903, 
-0.6888232827186584, -0.09500718116760254, 0.6916381452890332, 1728048633473103842, 
-0.3613259792327881, 0.699857771396637, 0.8239030177191919, 1728048633499817573, 
0.02072012424468994, 0.28423434495925903, 0.6999205062508606, 1728048633529719047, 
-0.0760464072227478, -0.3708433508872986, 0.6739555197796252, 1728048633559671805, 
0.6555813550949097, -0.19285321235656738, 0.7018229688102645, 1728048633589600932, 
-0.05614316463470459, 0.5425174832344055, 0.69940989055122, 1728048633619562330, 
0.18610984086990356, 0.15465736389160156, 0.704033238258801, 1728048633648583117, 
-0.11232519149780273, -0.17668068408966064, 0.6420656009482676, 1728048633680231844, 
-0.20861250162124634, -0.06943720579147339, 0.643151861144413, 1728048633711722944, 
-0.18599510192871094, -0.017321109771728516, 0.7113040405881665, 1728048633749400933, 
-0.049461185932159424, 0.49304288625717163, 0.6770178362197495, 1728048633779322477, 
-0.28112947940826416, 0.1636500358581543, 0.6623299326501256, 1728048633809463964, 
0.18708086013793945, -0.30267030000686646, 0.6390523225264135, 1728048633841267868, 
0.15305471420288086, 0.07154905796051025, 0.7774104685626756, 1728048633869175020, 
-0.268688440322876, 0.6506218910217285, 0.7177277602136565, 1728048633899087124, 
0.28605741262435913, 0.027551233768463135, 0.6688505065408216, 1728048633929047461, 
-0.4275491237640381, -0.7504645586013794, 0.6853327754999254, 1728048633958993332, 
0.5759109258651733, 0.19335031509399414, 0.6905659326052757, 1728048633988988658, 
-0.21934658288955688, 0.9465361833572388, 0.6888106894079086, 1728048634018891534, 
-0.033219218254089355, -0.28553253412246704, 0.6748129357729332, 1728048634049753159, 
-0.3796160817146301, -0.771160900592804, 0.638160195380776, 1728048634081271609, 
0.3412371277809143, 0.5807722806930542, 0.7037450552216782, 1728048634108924968, 
-0.14132440090179443, 0.9617529511451721, 0.6856630540550515, 1728048634138725707, 
-0.19256389141082764, 0.8999758362770081, 0.6751263294821408, 1728048634168905890, 
-0.25221681594848633, -0.72259920835495, 0.6806826949711574, 1728048634198709687, 
0.1305755376815796, -0.3170619010925293, 0.6844177464078214, 1728048634228582208, 
0.2089884877204895, 0.7576521635055542, 0.7036927722464755, 1728048634257587721, 
0.22601717710494995, 0.3116258382797241, 0.6324214185457473, 1728048634289458768, 
-0.04005807638168335, -0.5646774768829346, 0.6128803101274648, 1728048634321695256, 
0.1860417127609253, -0.1712138056755066, 0.7513505179062274, 1728048634348395804, 
-0.3621775507926941, 0.8127911686897278, 0.6717464025751808, 1728048634377245236, 
0.3446155786514282, 0.30610203742980957, 0.6402033807432304, 1728048634408272798, 
-0.3912084102630615, -0.6506204605102539, 0.7047264884566256, 1728048634438382159, 
-0.037311851978302, -0.035409510135650635, 0.6894041983485907, 1728048634468114185, 
0.25772255659103394, 0.7087330222129822, 0.6528860636733472, 1728048634498109931, 
0.017636120319366455, 0.1860349178314209, 0.6442107096697803, 1728048634529391504, 
-0.1732478141784668, -0.47422975301742554, 0.6354899954508446, 1728048634560802427, 
-0.03396064043045044, -0.11700791120529175, 0.7388915400835839, 1728048634588038251, 
0.06518447399139404, 0.7359216809272766, 0.6610897431259672, 1728048634617832493, 
0.017911136150360107, 0.09000647068023682, 0.6135282014564037, 1728048634647790872, 
-0.007920622825622559, -0.6080437898635864, 0.6401021215636475, 1728048634677885266, 
-0.1626541018486023, 0.2487163543701172, 0.6712144202419612, 1728048634707742879, 
0.1394023895263672, 0.7553173303604126, 0.6565158295772149, 1728048634737708542, 
-0.3024170398712158, -0.34402281045913696, 0.628565793556819, 1728048634769910842, 
0.11413753032684326, -0.5396624803543091, 0.7131247649153892, 1728048634799693104, 
0.08498382568359375, 0.7812289595603943, 0.7610419109736293, 1728048634827585286, 
0.41703301668167114, 0.5621206760406494, 0.6735290671312846, 1728048634857451848, 
-0.22227859497070312, -0.3783190846443176, 0.5968833645503289, 1728048634879581204, 
-0.16031497716903687, -0.3901407718658447, 0.6863438029427077, 1728048634917348474, 
0.11937481164932251, 0.8936226963996887, 0.6482723302311348, 1728048634947369257, 
0.26633507013320923, 0.3700633645057678, 0.66918376285301, 1728048634977513304, 
-0.20468628406524658, -0.8418848514556885, 0.6163007037535603, 1728048635009873201, 
0.08760207891464233, -0.03045600652694702, 0.7415143767128678, 1728048635036218742, 
0.13937783241271973, 0.8173858523368835, 0.6433269160685561, 1728048635067090355, 
-0.046861469745635986, -1.1319938898086548, 0.5523515666940645, 1728048635091080219, 
-0.16892051696777344, 0.21079152822494507, 0.7552266311438385, 1728048635117109735, 
0.41338247060775757, 0.9391656517982483, 0.6635832219523249, 1728048635146980130, 
-0.07054495811462402, -0.27711236476898193, 0.6543494314473893, 1728048635176916241, 
0.08271074295043945, -0.6709514856338501, 0.6377104269886279, 1728048635206911184, 
0.18537133932113647, 0.41339367628097534, 0.6493234130611147, 1728048635236807715, 
-0.11410820484161377, 0.5579060316085815, 0.6536404604530172, 1728048635266849914, 
-0.28339725732803345, -0.18346363306045532, 0.6323274299421057, 1728048635297483648, 
0.08596634864807129, -0.2967991232872009, 0.6354233525391797, 1728048635329231215, 
0.3193517327308655, 0.21431851387023926, 0.7682642230476915, 1728048635355642159, 
-0.25100141763687134, 0.5203485488891602, 0.6241100225484802, 1728048635386561175, 
-0.010618031024932861, -0.4428662657737732, 0.6548376797898308, 1728048635416570277, 
0.09015035629272461, -0.25103336572647095, 0.6428309403081369, 1728048635446466718, 
0.014528870582580566, 0.44143933057785034, 0.6318402665414035, 1728048635476394060, 
-0.4508153200149536, 0.13985306024551392, 0.6464389770426155, 1728048635506366985, 
0.43036746978759766, -0.4713570475578308, 0.6130303330782111, 1728048635537306673, 
-0.4400191307067871, 0.008156180381774902, 0.5707406788478168, 1728048635569658275, 
0.4268254041671753, 1.083603858947754, 0.7129702277225727, 1728048635596188894, 
-0.06673932075500488, -0.17698031663894653, 0.6626305860316771, 1728048635626168299, 
-0.28151458501815796, -0.8769545555114746, 0.6547868943522991, 1728048635656076072, 
0.3901972770690918, 0.4016348719596863, 0.6574775237088356, 1728048635686063429, 
-0.13217008113861084, 0.8124986886978149, 0.6502287970492499, 1728048635716043363, 
-0.26614242792129517, -0.39524418115615845, 0.6588413216374172, 1728048635746120897, 
0.15480846166610718, -0.7010911107063293, 0.6455998774406413, 1728048635777996829, 
0.06831520795822144, 0.635830283164978, 0.6640203593059889, 1728048635808626921, 
-0.20101535320281982, 0.5718779563903809, 0.7299562035111261, 1728048635835780752, 
0.151971697807312, -0.5150198340415955, 0.6378428314883468, 1728048635865778276, 
-0.07718896865844727, -0.2871728539466858, 0.6201653632167687, 1728048635895709781, 
0.16170483827590942, 0.7919086813926697, 0.6160682748863097, 1728048635925636553, 
-0.14826840162277222, -0.010988891124725342, 0.6108916681608039, 1728048635955724808, 
-0.0999249815940857, -0.7386906147003174, 0.6122091838790009, 1728048635985608490, 
-0.00041109323501586914, 0.3197011947631836, 0.5882461246281476, 1728048636017356630, 
-0.10280168056488037, 0.6172091960906982, 0.6843518554265303, 1728048636045486785, 
-0.10459780693054199, -0.47200340032577515, 0.6420262904353057, 1728048636075465919, 
0.14879822731018066, -0.17010802030563354, 0.6359116553599842, 1728048636105334871, 
0.0009766817092895508, 0.3394346237182617, 0.620497938338105, 1728048636135444016, 
0.09227371215820312, 0.23111969232559204, 0.6260958130052299, 1728048636165266863, 
-0.20157086849212646, -0.16422659158706665, 0.6263988714021353, 1728048636195192476, 
0.27632570266723633, -0.22581392526626587, 0.619131527715132, 1728048636226007593, 
-0.6138826012611389, 0.45792096853256226, 0.6040398632292783, 1728048636257376365, 
0.1528880000114441, 0.2628152370452881, 0.6740521497296718, 1728048636285066121, 
-0.49320095777511597, -0.7512087821960449, 0.6471615607498363, 1728048636315031118, 
-0.228965163230896, 0.21971720457077026, 0.6616321742755255, 1728048636344958088, 
0.2950449585914612, 0.8141263723373413, 0.654444225387308, 1728048636374896557, 
-0.3058411478996277, -0.4136587977409363, 0.6431155498691139, 1728048636404919264, 
0.45564085245132446, -0.6045840978622437, 0.6431365011343995, 1728048636434839496, 
-0.07589244842529297, 0.7942017912864685, 0.6344618971951783, 1728048636465672035, 
0.09373056888580322, 0.44088661670684814, 0.6177345441817412, 1728048636497358549, 
-0.548804521560669, -0.9887802004814148, 0.7036172466958439, 1728048636524657748, 
0.393305242061615, -0.08346205949783325, 0.6368570074157799, 1728048636554600297, 
-0.020518004894256592, 0.9622171521186829, 0.6495405150357793, 1728048636584548220, 
-0.07886600494384766, -0.28076261281967163, 0.6502913373389384, 1728048636614497166, 
0.06741476058959961, -0.8065919280052185, 0.64029303241157, 1728048636644436797, 
0.29766368865966797, 0.4668735861778259, 0.6197543074153373, 1728048636674462362, 
-0.21301692724227905, 0.5560308694839478, 0.5816385333553412, 1728048636705378039, 
-0.1741599440574646, -0.4272007346153259, 0.5478164456491059, 1728048636737942168, 
-0.27316951751708984, -0.37826573848724365, 0.6761923801681655, 1728048636764301216, 
0.18734508752822876, 0.4670507311820984, 0.6003474362038416, 1728048636794200523, 
-0.1254240870475769, 0.42527133226394653, 0.5942194786410451, 1728048636824149264, 
0.12555146217346191, -0.5339918732643127, 0.5714596363801324, 1728048636854145031, 
-0.13231414556503296, 0.007444143295288086, 0.5915384179627613, 1728048636884306990, 
0.10118114948272705, 0.34209996461868286, 0.6452471655081586, 1728048636914027934, 
-0.19201821088790894, 0.13596594333648682, 0.6179337756585123, 1728048636945368769, 
0.1926606297492981, -0.17122191190719604, 0.617675889023239, 1728048636976832085, 
0.02573496103286743, 0.054131507873535156, 0.707272905621498, 1728048637003928416, 
-0.12665891647338867, -0.02703303098678589, 0.6129928833725835, 1728048637033840374, 
0.07597094774246216, -0.20567607879638672, 0.5200785632410586, 1728048637056513994, 
-0.0968819260597229, 0.10187119245529175, 0.62161046365557, 1728048637093755962, 
0.053205907344818115, 0.009603023529052734, 0.6059275950408295, 1728048637123692772, 
-0.3165575861930847, 0.19529998302459717, 0.614618018159302, 1728048637153588517, 
-0.20330721139907837, 0.13481515645980835, 0.5563195982086678, 1728048637185803864, 
-0.3263164162635803, -0.3129148483276367, 0.6086154032438492, 1728048637215549089, 
0.5904495120048523, 0.5353156924247742, 0.6555098165334986, 1728048637243457810, 
-0.25581932067871094, 0.08613401651382446, 0.6065619688090593, 1728048637273515215, 
0.10997825860977173, -0.5910405516624451, 0.6013633614261035, 1728048637303422446, 
-0.013552844524383545, 0.44117558002471924, 0.5954059779885142, 1728048637333588892, 
0.09184163808822632, 0.47207480669021606, 0.6170224328075282, 1728048637363322420, 
-0.09857386350631714, 0.3074219226837158, 0.6182667367545225, 1728048637393487534, 
0.07941776514053345, -0.7783366441726685, 0.5990413662994885, 1728048637425373080, 
-0.1817793846130371, 0.13366097211837769, 0.6831009792033372, 1728048637453299487, 
-0.14230763912200928, 0.9394528269767761, 0.6442674159613753, 1728048637482256321, 
-0.590388834476471, -0.7130866646766663, 0.5161129110309014, 1728048637506002944, 
0.18279564380645752, 0.3237196207046509, 0.6594624459201859, 1728048637533114733, 
-0.1515464186668396, 0.29517871141433716, 0.5270675516580188, 1728048637562904627, 
0.8182116150856018, 0.041426777839660645, 0.5408172808637438, 1728048637592856974, 
0.28918951749801636, -0.036261796951293945, 0.6366428522328104, 1728048637622875781, 
-0.09924745559692383, 0.21742135286331177, 0.6027163319848092, 1728048637652766510, 
-0.11361628770828247, 0.04508638381958008, 0.5740748353849333, 1728048637682786145, 
-0.2632519006729126, -0.009048044681549072, 0.5707542788881034, 1728048637713446735, 
0.04179495573043823, -0.07879644632339478, 0.5539451710167342, 1728048637745478650, 
-0.7406938076019287, 0.23358678817749023, 0.6436791208264392, 1728048637772545339, 
0.2784915566444397, 0.024367213249206543, 0.5835333358958841, 1728048637802544170, 
-0.3894381523132324, -0.18371421098709106, 0.6175338393941688, 1728048637832495766, 
0.08904194831848145, 0.25785839557647705, 0.6175426634555182, 1728048637862385382, 
0.11919045448303223, -0.026966392993927002, 0.6364566303887385, 1728048637892442402, 
0.05179715156555176, -0.007600605487823486, 0.6248004894893442, 1728048637922386826, 
-0.17174458503723145, 0.2452075481414795, 0.5501675239223196, 1728048637953902831, 
-0.13747215270996094, -0.1445293426513672, 0.5469850461017703, 1728048637985708094, 
-0.134474515914917, 0.21081745624542236, 0.6748513300756401, 1728048638012390300, 
-0.3269912004470825, 0.10517692565917969, 0.6149830601729404, 1728048638042314143, 
0.33234095573425293, 0.27860027551651, 0.6218224457187265, 1728048638072287401, 
-0.15871071815490723, -0.3699585199356079, 0.6117512205179005, 1728048638102183306, 
0.025188088417053223, -0.2863316535949707, 0.6177899299825426, 1728048638131224986, 
0.04580390453338623, 0.5658683180809021, 0.5762922251795598, 1728048638162164269, 
0.05549180507659912, 0.2975594997406006, 0.5464313309981313, 1728048638193447789, 
-0.4842284321784973, -0.7347458600997925, 0.5384417223442282, 1728048638224630024, 
0.3247445225715637, 0.1278688907623291, 0.6197647323988787, 1728048638252189896, 
-0.5026533007621765, 0.839156985282898, 0.5985270380847669, 1728048638282091662, 
-0.3575640320777893, -0.3743440508842468, 0.572265807419167, 1728048638303243167, 
0.1328352689743042, -0.2819198966026306, 0.6255224906712553, 1728048638342084211, 
0.33612602949142456, 0.9029356837272644, 0.5971434691997083, 1728048638372080871, 
-0.41009461879730225, -0.09987550973892212, 0.5909464236895656, 1728048638402100784, 
0.060291290283203125, -0.7044298648834229, 0.5617805238238649, 1728048638433586006, 
-0.08324587345123291, 0.5623412728309631, 0.5861588379082101, 1728048638463549237, 
-0.27352374792099, 0.6249347925186157, 0.6090273845843792, 1728048638492025614, 
0.1449689269065857, -0.4953669309616089, 0.5816184280633143, 1728048638521970132, 
-0.05199998617172241, 0.20201390981674194, 0.5833261463790238, 1728048638551294366, 
-0.08244895935058594, 0.19256532192230225, 0.5811823225173177, 1728048638580211568, 
-0.3203161954879761, -0.1280735731124878, 0.5495415821122159, 1728048638610218375, 
0.10370707511901855, 0.08179843425750732, 0.5610037834243479, 1728048638641244080, 
-0.3548011779785156, 0.02303558588027954, 0.5687747970731686, 1728048638673443961, 
0.32751530408859253, 0.11797171831130981, 0.6438946205077275, 1728048638701045402, 
-0.3629905581474304, 0.010465681552886963, 0.5668021509428913, 1728048638731061187, 
0.49449241161346436, 0.09306395053863525, 0.5675125279544831, 1728048638760937825, 
-0.08053803443908691, 0.13538938760757446, 0.5741743144005275, 1728048638790883894, 
0.08501648902893066, -0.05418992042541504, 0.5858691611699783, 1728048638820803403, 
-0.4386935234069824, 0.06966972351074219, 0.5839426787131133, 1728048638850762449, 
-0.07041901350021362, 0.11720657348632812, 0.5541485406726607, 1728048638881691875, 
-0.13088268041610718, 0.29510730504989624, 0.5361856860109515, 1728048638914106997, 
0.14878886938095093, -0.3374003767967224, 0.6610385019679145, 1728048638940647223, 
0.05967998504638672, 0.18216007947921753, 0.5873856464195567, 1728048638970506129, 
-0.2886442542076111, 0.4210771918296814, 0.5933448896515763, 1728048639000504282, 
-0.06685531139373779, -0.15112590789794922, 0.5794157161378127, 1728048639030415954, 
-0.1388554573059082, -0.08607751131057739, 0.5572678728074982, 1728048639060336760, 
-0.0261000394821167, 0.35290879011154175, 0.5708780445837554, 1728048639090347643, 
-0.402662456035614, 0.11245125532150269, 0.5407766945009256, 1728048639122402950, 
0.22527897357940674, -0.43233031034469604, 0.5640015233749881, 1728048639153496269, 
-0.1578875184059143, -0.3793475031852722, 0.6173226608755463, 1728048639190187381, 
0.44782382249832153, 0.3042070269584656, 0.581239774285964, 1728048639220088513, 
-0.17262810468673706, 0.4301537871360779, 0.6049235195444074, 1728048639250109007, 
-0.060374915599823, -0.3647802472114563, 0.5508758126291733, 1728048639281705106, 
-0.25316208600997925, 0.024785637855529785, 0.5474313355778907, 1728048639312628397, 
0.5419521331787109, 0.5946263074874878, 0.6237701691514249, 1728048639339972789, 
-0.3970736861228943, -0.29648900032043457, 0.5682637057177544, 1728048639369886047, 
0.12832587957382202, -0.003764629364013672, 0.5667523024794593, 1728048639399782049, 
-0.426222026348114, 0.12579458951950073, 0.5721223465548204, 1728048639429797955, 
-0.17484188079833984, 0.13074082136154175, 0.5667096780487906, 1728048639459725895, 
0.13478463888168335, 0.2157648205757141, 0.5660539797521577, 1728048639490128805, 
-0.04830855131149292, -0.03438490629196167, 0.5669707927301876, 1728048639521550997, 
-0.15329015254974365, 0.0613861083984375, 0.5720030002017904, 1728048639551612382, 
-0.004680514335632324, 0.20402944087982178, 0.5845327411991331, 1728048639589507134, 
-0.2522674798965454, -0.04399603605270386, 0.5309984988673527, 1728048639619480466, 
0.05260610580444336, 0.11340802907943726, 0.5278510815379683, 1728048639649781129, 
-0.5528662204742432, 0.17330938577651978, 0.5237126191154496, 1728048639682064914, 
-0.08667260408401489, 0.11265021562576294, 0.6252571440152054, 1728048639709461640, 
-0.2947067618370056, -0.0886874794960022, 0.5874475247400301, 1728048639739199557, 
0.35354477167129517, 0.2503178119659424, 0.5968125582299101, 1728048639768268775, 
-0.030351758003234863, 0.16843080520629883, 0.5573526296568184, 1728048639799136989, 
-0.05846673250198364, -0.24253511428833008, 0.5755709093033531, 1728048639829071190, 
-0.2895592451095581, 0.08975374698638916, 0.5701967925967639, 1728048639859067374, 
0.027010023593902588, 0.627273678779602, 0.5404707588388818, 1728048639889799904, 
-0.23780661821365356, -0.14487683773040771, 0.521997312694179, 1728048639921760640, 
-0.29618895053863525, -0.3329133987426758, 0.6256150955657633, 1728048639948911316, 
0.2204715609550476, 0.5564395785331726, 0.579305336915578, 1728048639977828167, 
-0.14401578903198242, 0.11370837688446045, 0.5506124773951748, 1728048640008744179, 
0.3194352984428406, -0.3488345742225647, 0.5649296835495162, 1728048640038727504, 
-0.5804334878921509, 0.28507864475250244, 0.5387186978829998, 1728048640068662727, 
0.15781205892562866, 0.38896143436431885, 0.5457016389055177, 1728048640098652497, 
-0.3757496476173401, -0.2606506943702698, 0.5124477918484868, 1728048640130611271, 
-0.1710241436958313, -0.11701494455337524, 0.5293666009533841, 1728048640161585960, 
0.428638219833374, 0.4841359853744507, 0.5949832450162271, 1728048640188478198, 
0.11543899774551392, 0.07244616746902466, 0.5320015900057062, 1728048640218441140, 
-0.24982327222824097, 0.06150639057159424, 0.5475956809604977, 1728048640248336742, 
-0.2227899432182312, -0.06093806028366089, 0.5609944080434097, 1728048640278311281, 
-0.027985453605651855, 0.3656676411628723, 0.5584835060778053, 1728048640308281106, 
-0.11670231819152832, 0.23498058319091797, 0.5689736292924652, 1728048640338267724, 
0.14449286460876465, -0.24706751108169556, 0.5347375289977958, 1728048640370178974, 
-0.03286755084991455, 0.12140494585037231, 0.5099521623003384, 1728048640401430674, 
-0.027519643306732178, 0.10605710744857788, 0.6027015813684277, 1728048640428082114, 
-0.5581585764884949, 0.2987455725669861, 0.5319196385556972, 1728048640458032962, 
0.044494688510894775, 0.08476918935775757, 0.5023828423137283, 1728048640480128466, 
-0.5407805442810059, -0.22159641981124878, 0.6095430107643018, 1728048640517902863, 
0.16915076971054077, 0.17689847946166992, 0.5432524147027553, 1728048640547939116, 
0.13470083475112915, 0.34749895334243774, 0.5387803102078437, 1728048640577031509, 
0.23257678747177124, 0.09411227703094482, 0.5033330065966153, 1728048640609812654, 
-0.26641738414764404, -0.1904735565185547, 0.5353905687723203, 1728048640639836156, 
0.2724866271018982, -0.31707924604415894, 0.5782927679262543, 1728048640677907379, 
-0.48035210371017456, -0.20222288370132446, 0.5328117496934561, 1728048640707739308, 
0.477446973323822, 0.8280591368675232, 0.5254182764845157, 1728048640737837263, 
-0.4507078528404236, 0.13138556480407715, 0.5094931720934108, 1728048640770357498, 
0.2462560534477234, -0.7281618714332581, 0.6148407282783229, 1728048640797481377, 
-0.55531907081604, 0.40117526054382324, 0.572926923523711, 1728048640827421004, 
-0.20284658670425415, 0.7237588167190552, 0.5480590266307719, 1728048640857349893, 
-0.22233456373214722, -0.41634267568588257, 0.5418410041689741, 1728048640887304880, 
0.05240863561630249, -0.06533777713775635, 0.543890510860592, 1728048640917254966, 
0.33628857135772705, 0.5954362154006958, 0.5548986835393229, 1728048640947187664, 
-0.23923254013061523, -0.030964791774749756, 0.5135902847043465, 1728048640978337461, 
-0.3638421893119812, -0.2557457685470581, 0.5017978612185031, 1728048641009800077, 
0.061341166496276855, 0.5205262899398804, 0.5586123567934036, 1728048641037093957, 
-0.06892943382263184, 0.16229265928268433, 0.5258016472578566, 1728048641066997657, 
-0.25207632780075073, -0.1468217372894287, 0.5700170411872271, 1728048641096230051, 
-0.27302002906799316, 0.10309702157974243, 0.5611812672160951, 1728048641126231953, 
0.014284968376159668, 0.4024953246116638, 0.5295468645036631, 1728048641157267048, 
0.5205670595169067, 0.002194643020629883, 0.5567754804058451, 1728048641186230164, 
-0.7231931686401367, -0.022020578384399414, 0.5043531020038917, 1728048641217613324, 
0.3258731961250305, 0.2194252610206604, 0.5090623382575127, 1728048641249778635, 
-0.4956080913543701, 0.020234644412994385, 0.5846310160105987, 1728048641277192902, 
-0.27762389183044434, -0.1760350465774536, 0.5228415968596751, 1728048641306221962, 
0.23553204536437988, 0.22436779737472534, 0.508391965658218, 1728048641337129742, 
-0.35676413774490356, 0.1559814214706421, 0.5419044815167484, 1728048641367074576, 
-0.021429240703582764, -0.06822729110717773, 0.54833747318443, 1728048641396483468, 
-0.1192086935043335, 0.1598680019378662, 0.5354186214625907, 1728048641426466145, 
0.15772366523742676, 0.48231565952301025, 0.49541021219742987, 1728048641458021809, 
-0.14746487140655518, -0.46790462732315063, 0.5108978994102041, 1728048641488931805, 
-0.00602954626083374, 0.12169575691223145, 0.5873880027672206, 1728048641515249581, 
-0.11350935697555542, 0.7339369058609009, 0.4955210462267777, 1728048641546187378, 
-0.056249380111694336, -0.4521489143371582, 0.5324531127139385, 1728048641576130428, 
-0.7960183620452881, -0.0888177752494812, 0.5335944938649354, 1728048641606071529, 
0.7134954929351807, 0.7294842600822449, 0.5421482011302969, 1728048641636208427, 
-0.6567064523696899, -0.47080570459365845, 0.5491418857022544, 1728048641666004623, 
0.25025081634521484, -0.27419567108154297, 0.5211199860951508, 1728048641696596844, 
0.25158506631851196, 0.9827074408531189, 0.4914379624997637, 1728048641727836323, 
0.24315887689590454, 0.8556115031242371, 0.5395776406607645, 1728048641765818916, 
-0.3512745499610901, -0.16495651006698608, 0.5357391241344561, 1728048641795871542, 
0.3173307776451111, -0.565711259841919, 0.5281911130821954, 1728048641825868501, 
-0.2931603789329529, 0.7301991581916809, 0.4756775645941021, 1728048641857822088, 
0.25683504343032837, 0.46159595251083374, 0.5435294503431283, 1728048641885616306, 
-0.26627928018569946, -0.5509423017501831, 0.5258938121768907, 1728048641915533863, 
-0.08477944135665894, 0.07517033815383911, 0.530258043884004, 1728048641945494234, 
0.12462979555130005, 0.4701946973800659, 0.5333627736771351, 1728048641975460063, 
0.39663565158843994, 0.04298025369644165, 0.5056961967431416, 1728048642005368531, 
0.09703505039215088, -0.10423964262008667, 0.490910577011052, 1728048642035448496, 
-0.33965396881103516, 0.07877922058105469, 0.5064449441148794, 1728048642065880843, 
0.24959832429885864, 0.3035932779312134, 0.4832100520543434, 1728048642098049848, 
-0.3632546067237854, 0.050068795680999756, 0.5755522257168516, 1728048642125270715, 
0.03344827890396118, 0.10293757915496826, 0.5091858011703438, 1728048642155193486, 
-0.12442713975906372, 0.061657488346099854, 0.5104516259121882, 1728048642185114737, 
0.23582231998443604, -0.10243052244186401, 0.5371396293735544, 1728048642215073928, 
-0.4065009355545044, 0.36273056268692017, 0.5321766469302744, 1728048642244969116, 
0.24076533317565918, 0.06670016050338745, 0.5385140836325166, 1728048642273987189, 
-0.19371777772903442, -0.3725625276565552, 0.47828897340647303, 1728048642305647781, 
0.15631991624832153, 0.5855404138565063, 0.4616162019838513, 1728048642337709237, 
-0.005630671977996826, 0.3630748987197876, 0.5577503410748095, 1728048642364862479, 
-0.29449743032455444, -0.6916338801383972, 0.506923483072457, 1728048642394769163, 
0.3497033715248108, 0.2054731845855713, 0.5060207781451427, 1728048642424674052, 
-0.24274539947509766, 0.8115348815917969, 0.502588646014848, 1728048642454684708, 
0.301633358001709, -0.5212308168411255, 0.5184592642816973, 1728048642484599803, 
-0.12465959787368774, -0.23251020908355713, 0.5348837119739419, 1728048642514578184, 
0.04958146810531616, 0.8401336073875427, 0.4995163321025483, 1728048642546057987, 
-0.771488606929779, -0.20425468683242798, 0.46932273218968706, 1728048642577917253, 
0.2808852195739746, -0.3150150775909424, 0.5745100267507199, 1728048642604480797, 
0.08733707666397095, 0.4819810390472412, 0.5236349664720236, 1728048642634396893, 
-0.27543461322784424, 0.10326778888702393, 0.5054229565097051, 1728048642664286818, 
0.1808713674545288, -0.44819122552871704, 0.5145396082454293, 1728048642694273053, 
-0.5991774201393127, 0.5481567978858948, 0.5332838933693513, 1728048642724194370, 
0.8145460486412048, 0.5170423984527588, 0.5280487145846452, 1728048642754169788, 
-0.3536950945854187, -0.5493019819259644, 0.45858002693199473, 1728048642785908623, 
0.17439031600952148, 0.13585209846496582, 0.4772657527670706, 1728048642816858929, 
-0.10575485229492188, 0.5453037023544312, 0.5926598947993414, 1728048642842965969, 
-0.2748548984527588, -0.13543438911437988, 0.4812066054170887, 1728048642873949769, 
0.03150361776351929, -0.2348453402519226, 0.4573150352286809, 1728048642903934694, 
-0.045202791690826416, 0.3391520380973816, 0.4861655588879758, 1728048642933832755, 
-0.1221773624420166, 0.26849889755249023, 0.5052041010577712, 1728048642963762082, 
0.09497827291488647, -0.12744677066802979, 0.5105001863750043, 1728048642994107649, 
-0.22556418180465698, 0.102314293384552, 0.4841109303605726, 1728048643025647637, 
0.3710710406303406, 0.05765289068222046, 0.47385323522615486, 1728048643055712085, 
-0.3264904022216797, -0.15314418077468872, 0.5278368326267382, 1728048643093599056, 
0.3506382703781128, 0.28541016578674316, 0.4901048297143827, 1728048643123642582, 
-0.45446163415908813, 0.3456519842147827, 0.4963775667309035, 1728048643154013106, 
-0.09910953044891357, -0.34224003553390503, 0.4806070009485663, 1728048643186099765, 
-0.037151217460632324, 0.10000449419021606, 0.539070432165528, 1728048643213434623, 
-0.01109987497329712, 0.41872942447662354, 0.5191617396933741, 1728048643243322061, 
0.13503646850585938, -0.2075980305671692, 0.5060239754814593, 1728048643273323914, 
0.1722484827041626, -0.18959122896194458, 0.479926844626886, 1728048643302255839, 
-0.30687105655670166, 0.5885449051856995, 0.46820258395355596, 1728048643332215382, 
-0.08995658159255981, 0.22453677654266357, 0.4682438687772473, 1728048643363096271, 
0.04941296577453613, -0.5308268666267395, 0.45532868555415706, 1728048643393988385, 
-0.06321310997009277, 0.44373220205307007, 0.4495190367583402, 1728048643425717883, 
0.2856607437133789, 0.4281296133995056, 0.5292905380567401, 1728048643453065110, 
-0.4652482867240906, -0.47075527906417847, 0.48450762798708097, 1728048643482910405, 
-0.04635167121887207, 0.5448736548423767, 0.42619075633110903, 1728048643506354643, 
-0.01727616786956787, -0.1348983645439148, 0.5795868463648551, 1728048643533040372, 
0.3411739468574524, -0.20286822319030762, 0.5105213043900949, 1728048643562796501, 
0.12943589687347412, 0.5073172450065613, 0.48098056181911747, 1728048643592739575, 
-0.06605249643325806, 0.06367301940917969, 0.47976175575565094, 1728048643622648237, 
0.01720196008682251, -0.28277915716171265, 0.4880416531250129, 1728048643652617899, 
-0.3775135278701782, 0.24403613805770874, 0.48309323048891745, 1728048643682661244, 
0.30935531854629517, 0.1372891664505005, 0.4745484730116852, 1728048643713684159, 
-0.408283531665802, 0.028151392936706543, 0.43432674918792674, 1728048643745974883, 
0.5172780752182007, 0.09279066324234009, 0.5356585183771674, 1728048643772662069, 
-0.11215126514434814, 0.044785261154174805, 0.4791348702972655, 1728048643802711665, 
-0.007556319236755371, 0.1257820725440979, 0.46923366827286017, 1728048643832636467, 
-0.007994532585144043, 0.007858633995056152, 0.4751287932996151, 1728048643862630101, 
0.438213050365448, 0.25509607791900635, 0.45573015667968586, 1728048643892835371, 
-0.3178836703300476, 0.057848989963531494, 0.46663207019526803, 1728048643922734058, 
-0.05909961462020874, 0.054822444915771484, 0.4571467236933952, 1728048643954399664, 
-0.2201715111732483, 0.2209998369216919, 0.5080316543909541, 1728048643983955997, 
0.26877766847610474, -0.036477088928222656, 0.5233136892531078, 1728048644012763423, 
-0.12117063999176025, -0.20293647050857544, 0.5058011076314971, 1728048644042506853, 
0.5269250273704529, 0.47158730030059814, 0.49206990447243176, 1728048644072343974, 
-0.21229827404022217, 0.21082335710525513, 0.4781397260329038, 1728048644102385124, 
-0.43544381856918335, -0.3264610767364502, 0.47309525158144505, 1728048644132348511, 
0.3169613480567932, 0.260006308555603, 0.46812692945124895, 1728048644162427495, 
-0.06398218870162964, 0.32538485527038574, 0.42075747553691084, 1728048644193832573, 
0.2941754460334778, -0.2337990403175354, 0.46607155362662317, 1728048644221724603, 
-0.3355793356895447, 0.0430985689163208, 0.4904682136023139, 1728048644251251487, 
0.11569952964782715, 0.4326900839805603, 0.4756026345959739, 1728048644282311757, 
-0.44558846950531006, -0.2593640685081482, 0.5011300871076566, 1728048644311531764, 
-0.03853720426559448, 0.1933261752128601, 0.47385276773084906, 1728048644341510156, 
0.3895549774169922, 0.463655948638916, 0.46521620223176846, 1728048644371439653, 
-0.40390443801879883, -0.33522599935531616, 0.45055895905939325, 1728048644402552625, 
0.2798256278038025, 0.019427776336669922, 0.44290777507871415, 1728048644434000969, 
-0.07779872417449951, 0.4611085057258606, 0.49284614225800455, 1728048644461358206, 
-0.16429197788238525, -0.11107945442199707, 0.47485786251832196, 1728048644490232666, 
-0.2608453035354614, 0.06630361080169678, 0.44783360506557424, 1728048644521193921, 
0.4690486788749695, 0.3217310905456543, 0.50485997012353, 1728048644551118107, 
-0.046402037143707275, 0.011139094829559326, 0.5318266008416026, 1728048644580074325, 
0.3390430808067322, -0.189125657081604, 0.4626685667447581, 1728048644611044859, 
-0.12586605548858643, 0.1530536413192749, 0.4268643810149783, 1728048644641829709, 
0.325985848903656, 0.3433634638786316, 0.4001030185932053, 1728048644673831464, 
-0.2726108431816101, -0.11174064874649048, 0.4979719515609227, 1728048644700939888, 
-0.40054357051849365, -0.07301545143127441, 0.4607635881858154, 1728048644730825903, 
0.2100130319595337, -0.03780132532119751, 0.40374379375981245, 1728048644754018466, 
-0.4777427911758423, 0.2623956799507141, 0.5275735367020807, 1728048644780781472, 
0.5621960759162903, -0.07427197694778442, 0.4655576640845002, 1728048644810701144, 
-0.31369221210479736, -0.029224395751953125, 0.44007849310409314, 1728048644840625806, 
0.14113682508468628, 0.11389636993408203, 0.4648088165943095, 1728048644870564622, 
-0.1403304934501648, 0.08175504207611084, 0.4601322449180391, 1728048644900576005, 
0.04123646020889282, -0.2956926226615906, 0.4588681386004511, 1728048644930490369, 
0.11742228269577026, 0.2035183310508728, 0.43054816245597455, 1728048644962463838, 
-0.04331237077713013, 0.3615681529045105, 0.4313968623298133, 1728048644993768000, 
0.059193968772888184, -0.36928051710128784, 0.5277420664570428, 1728048645020350250, 
0.16276639699935913, 0.21975505352020264, 0.4828968624429165, 1728048645050272481, 
0.19966834783554077, -0.17084014415740967, 0.4193705848249683, 1728048645072905791, 
-0.43010199069976807, -0.1508314609527588, 0.5404162020625591, 1728048645099220502, 
0.5252560377120972, 0.6892418265342712, 0.4495274392091328, 1728048645130121867, 
0.281829297542572, -0.4193724989891052, 0.39186637773518174, 1728048645151920559, 
-0.3659895658493042, -0.41673845052719116, 0.47366957990295433, 1728048645190009714, 
0.4495118260383606, 0.6244812607765198, 0.44624002487462927, 1728048645220007309, 
-0.03269129991531372, 0.01095658540725708, 0.42442685363333316, 1728048645250285714, 
-0.1215440034866333, -0.2961285710334778, 0.4104120585993897, 1728048645281920950, 
0.055853307247161865, 0.42096197605133057, 0.46517251085526423, 1728048645311863613, 
-0.07152813673019409, 0.317962110042572, 0.4818165642354136, 1728048645350001469, 
-0.3627880811691284, -0.12186318635940552, 0.44721359341217554, 1728048645379733128, 
0.44578927755355835, -0.09690636396408081, 0.4450292098034639, 1728048645410185551, 
0.0915876030921936, 0.14603495597839355, 0.4085057412341618, 1728048645441919150, 
0.33159488439559937, 0.07686150074005127, 0.4848276658390407, 1728048645469605454, 
-0.34145379066467285, -0.0004042387008666992, 0.4491953957838195, 1728048645499553560, 
0.43275266885757446, 0.07614564895629883, 0.4361684093621465, 1728048645529441266, 
0.07215434312820435, 0.009260475635528564, 0.4834035734872982, 1728048645559429007, 
-0.3434833884239197, 0.1093093752861023, 0.4739624929194983, 1728048645589435789, 
0.583309531211853, -0.04258638620376587, 0.45675471040068594, 1728048645619369450, 
-0.20444822311401367, -0.1353958249092102, 0.4285028352652952, 1728048645650036428, 
0.26966291666030884, 0.34124648571014404, 0.3919054154552827, 1728048645682346449, 
0.17557358741760254, 0.017436623573303223, 0.4805340743695404, 1728048645709168178, 
0.012470781803131104, -0.07615482807159424, 0.445720985584645, 1728048645738121293, 
-0.28132164478302, 0.18191522359848022, 0.4042928929324313, 1728048645769081393, 
-0.09973651170730591, 0.034932613372802734, 0.42428298683944987, 1728048645798996678, 
-0.28826820850372314, -0.2130606770515442, 0.4455828726627107, 1728048645828969195, 
0.9257527589797974, 0.15888053178787231, 0.4755078183295044, 1728048645858996533, 
-0.49802571535110474, 0.4282078742980957, 0.4433589706078837, 1728048645890002574, 
0.27970385551452637, -0.5749897956848145, 0.4255827542632441, 1728048645921928286, 
0.1521472930908203, -0.003214538097381592, 0.4954520474723125, 1728048645948780016, 
-0.49032366275787354, 0.8664143681526184, 0.41277615095285325, 1728048645978685722, 
0.5311545133590698, -0.5471825003623962, 0.36096386993348795, 1728048646002596569, 
0.17224031686782837, 0.4255410432815552, 0.558408046392642, 1728048646028711882, 
-0.004530191421508789, 0.27491259574890137, 0.469785453957498, 1728048646058540889, 
-0.18647783994674683, -0.513982355594635, 0.44919680115408084, 1728048646088530129, 
0.07176852226257324, 0.22694456577301025, 0.42178320681138104, 1728048646118482353, 
-0.06871145963668823, 0.3042331337928772, 0.41900321256431183, 1728048646148417645, 
0.15488123893737793, -0.2563070058822632, 0.4247819873629171, 1728048646178444302, 
-0.19678932428359985, 0.24616914987564087, 0.408153698829101, 1728048646209930058, 
-0.05290275812149048, -0.05753070116043091, 0.41957448832052485, 1728048646241127914, 
-0.14263904094696045, -0.19185423851013184, 0.4678136060783013, 1728048646268313789, 
0.06847214698791504, 0.251620888710022, 0.4318296958413154, 1728048646298183585, 
0.23349112272262573, -0.054596006870269775, 0.4573631384963031, 1728048646328104115, 
-0.1442975401878357, -0.055777907371520996, 0.43319024832922987, 1728048646358090423, 
-0.0713004469871521, -0.03492695093154907, 0.4110975851816832, 1728048646388344149, 
-0.14497560262680054, 0.17291033267974854, 0.38927174878610943, 1728048646418128059, 
-0.003619372844696045, -0.0324249267578125, 0.3782635287205785, 1728048646450413200, 
-0.089741051197052, -0.3197925090789795, 0.5038857445257149, 1728048646477961248, 
0.23006731271743774, 0.21715694665908813, 0.44704658033257333, 1728048646507799687, 
-0.23678851127624512, -0.0017158985137939453, 0.43238835490943484, 1728048646537791341, 
-0.18555176258087158, 0.07438188791275024, 0.43175253684009823, 1728048646567691715, 
0.43263208866119385, 0.05437058210372925, 0.43487740389106094, 1728048646597640033, 
0.0006963014602661133, -0.11793249845504761, 0.4271172574277111, 1728048646627892058, 
-0.1880139708518982, 0.09217721223831177, 0.40149255409820617, 1728048646657889292, 
0.22818869352340698, -0.0684402585029602, 0.3645580998796139, 1728048646690057440, 
0.05344611406326294, -0.055869996547698975, 0.449393209661246, 1728048646717562010, 
-0.18891245126724243, 0.4388795495033264, 0.42599704256150356, 1728048646747383367, 
0.31960529088974, -0.2665860056877136, 0.40835082353702395, 1728048646777372475, 
-0.27065813541412354, -0.15475308895111084, 0.42794963478808823, 1728048646807422179, 
0.169854998588562, 0.45420724153518677, 0.4713157127314432, 1728048646836232371, 
-0.32352781295776367, -0.10957199335098267, 0.4269050914028043, 1728048646866212463, 
0.39442527294158936, -0.3032832145690918, 0.4264378827304716, 1728048646896245472, 
0.044347941875457764, 0.24856042861938477, 0.37045800076373486, 1728048646929938190, 
-0.1591196060180664, -0.1016690731048584, 0.4404858267896077, 1728048646957133551, 
0.280226469039917, -0.2587890028953552, 0.4240943583742801, 1728048646987071264, 
-0.15115922689437866, 0.4516177773475647, 0.41884736289160346, 1728048647017008845, 
0.09181606769561768, -0.07547491788864136, 0.4327632787630176, 1728048647047583822, 
-0.5434108376502991, -0.22384363412857056, 0.42847092018652705, 1728048647077653800, 
0.7083683609962463, -0.2573656439781189, 0.4303109731290103, 1728048647107575756, 
-0.20667260885238647, 0.26474422216415405, 0.4144566035977276, 1728048647137817099, 
0.20567888021469116, -0.06392484903335571, 0.3765769506991232, 1728048647170022486, 
-0.13548409938812256, -0.0027648210525512695, 0.44682156938261336, 1728048647196657351, 
-0.10024845600128174, 0.035078465938568115, 0.38727540150054407, 1728048647226608880, 
-0.10581004619598389, -0.05800813436508179, 0.39518020613813976, 1728048647256601526, 
-0.260120153427124, -0.12317198514938354, 0.4063299915852569, 1728048647286489374, 
0.07312816381454468, 0.21207565069198608, 0.40964178215123953, 1728048647316576496, 
0.038574278354644775, 0.05244004726409912, 0.4323119412315307, 1728048647346476265, 
0.18949508666992188, -0.18923747539520264, 0.4030007343723744, 1728048647377923151, 
0.3055853247642517, -0.060676634311676025, 0.389358372383137, 1728048647409080102, 
-0.15743452310562134, 0.1252753734588623, 0.4836762791368304, 1728048647435221302, 
-0.21797388792037964, 0.12832587957382202, 0.40655969164093886, 1728048647466194726, 
0.7061449885368347, -0.05065208673477173, 0.41973158177962994, 1728048647496134982, 
-0.6529042720794678, 0.08478587865829468, 0.40393764883970473, 1728048647526085498, 
-0.2415539026260376, 0.08466839790344238, 0.4177632337098308, 1728048647556067176, 
0.09034675359725952, -0.12311738729476929, 0.4029501681907123, 1728048647585234881, 
-0.2374691367149353, -0.18499737977981567, 0.3433420078647924, 1728048647617838760, 
0.7326685190200806, 0.33920615911483765, 0.4426884589138735, 1728048647645969651, 
-0.13448774814605713, -0.08495581150054932, 0.38861847531693244, 1728048647675829889, 
0.3465394377708435, -0.2489449381828308, 0.3829892009132916, 1728048647705792468, 
-0.3546965718269348, 0.3898230791091919, 0.405149556037485, 1728048647735761197, 
-0.13910061120986938, -0.3880171775817871, 0.40555538486749143, 1728048647765755609, 
-0.07894480228424072, -0.05745959281921387, 0.40801225812403863, 1728048647795642076, 
0.3598822355270386, 0.5356239080429077, 0.40133513161878276, 1728048647825932442, 
-0.35654211044311523, -0.25518131256103516, 0.3681151393660114, 1728048647858631242, 
0.18479782342910767, -0.11827081441879272, 0.4503485807530941, 1728048647885566096, 
0.005620002746582031, 0.361386239528656, 0.38707747391185404, 1728048647915459217, 
-0.29406172037124634, -0.3660663962364197, 0.37490209864743096, 1728048647945407375, 
0.589745044708252, 0.02484339475631714, 0.395325051002071, 1728048647975335314, 
-0.17099541425704956, 0.2038152813911438, 0.4310844831853841, 1728048648005318067, 
-0.13054102659225464, -0.08492833375930786, 0.45047774288087805, 1728048648034265133, 
-0.015064239501953125, 0.027316689491271973, 0.431352839191895, 1728048648065947318, 
0.12060898542404175, 0.277216374874115, 0.4223691054510293, 1728048648098156440, 
-0.07792788743972778, -0.09794175624847412, 0.44349621963399866, 1728048648125135552, 
-0.047245562076568604, -0.3785104751586914, 0.37509535996406035, 1728048648155036161, 
-0.3725956678390503, 0.11496704816818237, 0.3598605712462013, 1728048648185015311, 
0.6215535998344421, 0.20034104585647583, 0.3641681359041355, 1728048648214962752, 
-0.40165257453918457, -0.14850234985351562, 0.3316145917070553, 1728048648244879766, 
-0.10735422372817993, 0.015900790691375732, 0.360817003437298, 1728048648274904498, 
0.6170687675476074, -0.006924629211425781, 0.39606024968408027, 1728048648306381775, 
-0.7319039106369019, 0.1930304765701294, 0.3771655866381294, 1728048648337947288, 
0.4180094599723816, -0.18473297357559204, 0.44557015134831673, 1728048648364775487, 
-0.11961662769317627, 0.09294873476028442, 0.39251559424978283, 1728048648394650191, 
-0.02886909246444702, 0.11963969469070435, 0.38804098240664087, 1728048648424593312, 
-0.25036412477493286, -0.23081886768341064, 0.38682328483969125, 1728048648454549582, 
-0.09211957454681396, 0.002585470676422119, 0.3842448628279034, 1728048648484511712, 
0.1384192705154419, 0.18401068449020386, 0.37858802117535467, 1728048648514474242, 
-0.2982269525527954, -0.17753642797470093, 0.3503279510310136, 1728048648546202575, 
0.36295372247695923, 0.09003990888595581, 0.3729743715861143, 1728048648577041039, 
-0.06457126140594482, 0.20898854732513428, 0.4488898980927964, 1728048648604443977, 
0.19887810945510864, -0.388921856880188, 0.40080639092391535, 1728048648634278808, 
-0.3159290552139282, 0.194227397441864, 0.3918485587975407, 1728048648664166729, 
0.09480637311935425, 0.3795710802078247, 0.3512734685203146, 1728048648694184669, 
-0.8086122870445251, -0.701718807220459, 0.3450497719931266, 1728048648724090597, 
0.00263059139251709, 0.035616278648376465, 0.38682863933663847, 1728048648754415718, 
-0.4142714738845825, 0.5245634913444519, 0.37552407290787115, 1728048648786486648, 
0.10252726078033447, -0.5183119177818298, 0.41340927976116293, 1728048648816029801, 
-0.20892488956451416, 0.14377570152282715, 0.40922323097119717, 1728048648843860234, 
0.5107704401016235, 0.03265559673309326, 0.36011750970497175, 1728048648873855398, 
0.09142494201660156, -0.28714948892593384, 0.3659743479110749, 1728048648903810885, 
-0.2907373309135437, 0.3502061367034912, 0.36626053278886556, 1728048648933717192, 
0.1609441637992859, -0.094326913356781, 0.38748938020178497, 1728048648963727886, 
-0.11738210916519165, 0.08156406879425049, 0.398162768163966, 1728048648993217179, 
0.07425844669342041, 0.16924571990966797, 0.3524409955185462, 1728048649025982774, 
-0.4136802554130554, -0.24978739023208618, 0.3986154796132319, 1728048649053611703, 
0.38649576902389526, -0.020235300064086914, 0.3746576910273769, 1728048649083502072, 
0.0027968883514404297, 0.03373795747756958, 0.38179522536504124, 1728048649113444255, 
-0.32416921854019165, 0.12683188915252686, 0.3595843674540996, 1728048649143408673, 
0.929754912853241, -0.12848126888275146, 0.34813412060771537, 1728048649173319544, 
-0.5140923261642456, 0.04714101552963257, 0.3726944292692236, 1728048649202291998, 
0.07910019159317017, 0.123798668384552, 0.3681140087616173, 1728048649233998750, 
0.059593379497528076, -0.044473350048065186, 0.3598289023985015, 1728048649266424994, 
0.07009714841842651, -0.3142731189727783, 0.39285084506908324, 1728048649293161720, 
0.009079337120056152, 0.10135489702224731, 0.33317174627194085, 1728048649323115798, 
-0.30225443840026855, 0.35872650146484375, 0.32357978207102506, 1728048649353041629, 
-0.2870086431503296, -0.41197293996810913, 0.34298068467904985, 1728048649382999551, 
0.38209158182144165, 0.13161635398864746, 0.35304129673609125, 1728048649412919941, 
-0.09645777940750122, 0.20885509252548218, 0.3492410736427969, 1728048649442976650, 
-0.36610203981399536, -0.47056764364242554, 0.3592150150240515, 1728048649473988538, 
0.15903639793395996, 0.4206116795539856, 0.38966869008271937, 1728048649505999338, 
-0.33754217624664307, 0.06836378574371338, 0.48165149929359646, 1728048649532958352, 
0.48168444633483887, -0.47865796089172363, 0.400618507993576, 1728048649562903797, 
-0.010370850563049316, 0.5568835139274597, 0.3659948864710704, 1728048649592779867, 
-0.18725621700286865, -0.15271103382110596, 0.34691291003986574, 1728048649622800235, 
-0.18270373344421387, -0.3964414596557617, 0.3434828816153955, 1728048649652794793, 
-0.0008481740951538086, 0.5090290307998657, 0.38408897593997077, 1728048649682740321, 
-0.5223909616470337, -0.36512529850006104, 0.36706739238805286, 1728048649714774965, 
-0.04705667495727539, -0.31442439556121826, 0.40097941311086727, 1728048649744217541, 
0.3462647795677185, 0.46127885580062866, 0.37795707301825543, 1728048649772652851, 
-0.1317753791809082, -0.27162331342697144, 0.3331651724051029, 1728048649802655444, 
0.4487980008125305, -0.37085795402526855, 0.35951368695345387, 1728048649832684643, 
-0.10304969549179077, 0.5049085021018982, 0.36667227503244254, 1728048649862658043, 
0.525387167930603, -0.16771268844604492, 0.35955282230300706, 1728048649892647112, 
-0.47191256284713745, 0.0095137357711792, 0.3401790660003383, 1728048649922733828, 
-0.36522775888442993, 0.09945321083068848, 0.3419200159383104, 1728048649953997262, 
-0.20142346620559692, -0.24665826559066772, 0.3356901787759631, 1728048649984117856, 
-0.44017547369003296, -0.06470596790313721, 0.3542863998399442, 1728048650012582945, 
0.4946317672729492, 0.06272977590560913, 0.3607223091824077, 1728048650042570790, 
0.019518554210662842, 0.05093425512313843, 0.3649130243130831, 1728048650071835673, 
0.6290798187255859, -0.12692874670028687, 0.3470778006375805, 1728048650101808460, 
-0.20606744289398193, -0.08876907825469971, 0.3235671510007481, 1728048650131770514, 
-0.17266643047332764, 0.219720721244812, 0.31690564840194535, 1728048650162568303, 
-0.40978431701660156, -0.0012987256050109863, 0.3457273817654096, 1728048650193980403, 
0.09729689359664917, -0.1813170313835144, 0.414014706776858, 1728048650221591735, 
-0.3948644995689392, 0.35858064889907837, 0.3849292138928346, 1728048650251640502, 
-0.03113657236099243, -0.10764026641845703, 0.3515468248395767, 1728048650281536934, 
0.42812687158584595, -0.20514732599258423, 0.33727789074132586, 1728048650311452236, 
-0.4722861647605896, 0.09816056489944458, 0.359187728823637, 1728048650341488467, 
-0.07860350608825684, 0.14925050735473633, 0.34052943402434344, 1728048650371549809, 
-0.24986529350280762, -0.5191391110420227, 0.342336900216038, 1728048650402160633, 
-0.12225109338760376, 0.5227357149124146, 0.3218674041881339, 1728048650434041815, 
-0.00964432954788208, 0.31490689516067505, 0.3826447765400872, 1728048650471269909, 
-0.2930866479873657, -0.29623621702194214, 0.3716114041930842, 1728048650501088449, 
0.18743765354156494, -0.04535621404647827, 0.362815175224851, 1728048650531109814, 
0.0979468822479248, 0.4632076621055603, 0.32382029912418203, 1728048650562501128, 
-0.16685223579406738, -0.5878821015357971, 0.3095136954258375, 1728048650594051382, 
-0.17547661066055298, 0.005831599235534668, 0.3709050256867822, 1728048650620927654, 
-0.39256346225738525, 0.2872869372367859, 0.34338625642779463, 1728048650650801428, 
0.9305232763290405, -0.29989826679229736, 0.3787377836447608, 1728048650680784574, 
-0.06423377990722656, 0.13955849409103394, 0.3530672595763014, 1728048650710714109, 
0.2432337999343872, -0.1004902720451355, 0.3067968022811376, 1728048650740660458, 
0.10314834117889404, -0.04762923717498779, 0.3248716267152405, 1728048650770669326, 
-0.4118240475654602, 0.22898483276367188, 0.32436693234541936, 1728048650802872389, 
-0.05568963289260864, -0.23582357168197632, 0.3543345072424607, 1728048650833547443, 
-0.16487562656402588, 0.2136262059211731, 0.4007462102820683, 1728048650860543908, 
0.3266702890396118, 0.0709453821182251, 0.34238860301766105, 1728048650890416840, 
-0.47664380073547363, -0.1899205446243286, 0.2613348191788599, 1728048650913195393, 
0.5570446848869324, 0.04680508375167847, 0.3384161589699389, 1728048650950324697, 
-0.6927837133407593, 0.1189231276512146, 0.3538168863339378, 1728048650980282385, 
0.30841416120529175, 0.035762250423431396, 0.3420103784658593, 1728048651010444990, 
-0.1542159914970398, -0.08689814805984497, 0.3086381253811275, 1728048651042444941, 
-0.38408583402633667, 0.03885471820831299, 0.32888438513335605, 1728048651072206638, 
0.3671271800994873, -0.04874211549758911, 0.3816737024289541, 1728048651100056390, 
-0.5213978290557861, 0.17612457275390625, 0.3342922819412888, 1728048651130013316, 
0.12883657217025757, -0.2508513331413269, 0.3325137221574038, 1728048651159938604, 
-0.43629103899002075, 0.2093639373779297, 0.339278335112055, 1728048651189903440, 
-0.053946852684020996, -0.03112971782684326, 0.3380635044825088, 1728048651219886895, 
-0.1708175539970398, -0.323040246963501, 0.3310492245432121, 1728048651250606391, 
0.1528220772743225, 0.21556347608566284, 0.3134697284332501, 1728048651282369572, 
-0.06911414861679077, -0.12927228212356567, 0.33978202335200314, 1728048651309815390, 
-0.2900071144104004, -0.06402277946472168, 0.3013290409759803, 1728048651339655140, 
0.5599108934402466, 0.22563469409942627, 0.337259464967269, 1728048651369635816, 
-0.12455517053604126, -0.3849930167198181, 0.349209184826029, 1728048651399574721, 
0.06354540586471558, 0.14099270105361938, 0.3385027030177318, 1728048651429521411, 
-0.38804084062576294, 0.036424875259399414, 0.3360028193216834, 1728048651459488035, 
0.6046885251998901, -0.2536802887916565, 0.33296559947510435, 1728048651489480660, 
-0.14326834678649902, 0.38494938611984253, 0.2967256059156717, 1728048651522168338, 
-0.0661734938621521, 0.07709276676177979, 0.34552350699293083, 1728048651549420554, 
0.405264675617218, -0.41841429471969604, 0.3492642577699206, 1728048651578288450, 
-0.4783596992492676, 0.34934335947036743, 0.34439145913981817, 1728048651609283926, 
-0.0923616886138916, -0.14367300271987915, 0.345807313626168, 1728048651639146142, 
0.04879581928253174, -0.131153404712677, 0.3158806292315693, 1728048651669125034, 
0.06980288028717041, 0.32958555221557617, 0.2862689306683259, 1728048651699048517, 
-0.1179618239402771, -0.15321624279022217, 0.2906473252118988, 1728048651730618089, 
-0.08051764965057373, 0.23663699626922607, 0.3018425201785961, 1728048651762568339, 
-0.30073386430740356, -0.09737342596054077, 0.37247083999845154, 1728048651788915602, 
0.17388993501663208, -0.1363782286643982, 0.3225847470797313, 1728048651818859359, 
-0.3032035827636719, 0.24823838472366333, 0.31871571575192575, 1728048651848805131, 
-0.0033449530601501465, -0.13950711488723755, 0.3288441976069256, 1728048651878737299, 
0.0015869140625, -0.054422616958618164, 0.3299800219442422, 1728048651908737735, 
-0.06008857488632202, 0.018106460571289062, 0.33681259536221503, 1728048651938663934, 
-0.49492335319519043, 0.034957706928253174, 0.2984918337314264, 1728048651969247479, 
0.04577547311782837, -0.0975193977355957, 0.2745313897582547, 1728048652001727197, 
-0.4040989279747009, 0.19850438833236694, 0.3501512054726649, 1728048652038466234, 
0.44868725538253784, -0.008990764617919922, 0.35322216237349374, 1728048652068502242, 
0.053312838077545166, 0.00549548864364624, 0.32133451935555957, 1728048652098331595, 
-0.32379037141799927, 0.15607845783233643, 0.2763781192300446, 1728048652130441203, 
0.10198277235031128, -0.15936988592147827, 0.27911311266211425, 1728048652160620733, 
-0.46224790811538696, -0.006855010986328125, 0.3281597258073923, 1728048652187227355, 
0.42281609773635864, -0.19392073154449463, 0.32423910761529157, 1728048652218179468, 
-0.4103025794029236, 0.13480085134506226, 0.3128280233919545, 1728048652248126940, 
-0.27402377128601074, 0.17042946815490723, 0.2990772927689383, 1728048652278063664, 
-0.4178657531738281, -0.3541926145553589, 0.3014306892409791, 1728048652308046417, 
0.4281638264656067, 0.11946636438369751, 0.3055128761756273, 1728048652338794789, 
-0.0615772008895874, 0.30587923526763916, 0.2978629542456826, 1728048652370321412, 
-0.4386119246482849, -0.44723010063171387, 0.31831125311376113, 1728048652397954587, 
0.3124919533729553, 0.348909854888916, 0.3187898542247718, 1728048652427848431, 
-0.686336100101471, -0.0029438138008117676, 0.3142235805614002, 1728048652457747155, 
0.8126862049102783, -0.558922529220581, 0.30757446760503315, 1728048652487734298, 
-0.2269698977470398, 0.570831298828125, 0.3232518629040453, 1728048652517687989, 
-0.07558971643447876, -0.2873823642730713, 0.33275997356914366, 1728048652547655635, 
0.16507846117019653, -0.026614785194396973, 0.300341209361459, 1728048652578437654, 
-0.14546692371368408, 0.3019867539405823, 0.2968915094525175, 1728048652610476026, 
-0.2880033254623413, -0.39398735761642456, 0.34459808712911516, 1728048652637491725, 
-0.03470271825790405, 0.035830140113830566, 0.30875181405481605, 1728048652666427218, 
0.3852112293243408, 0.327664852142334, 0.2964389203979346, 1728048652697348635, 
-0.6924407482147217, -0.32500386238098145, 0.29743035987841066, 1728048652727309039, 
0.4143637418746948, 0.20220011472702026, 0.31422232506913256, 1728048652757271298, 
-0.6266179084777832, 0.04184204339981079, 0.33798940219323176, 1728048652786230301, 
0.1963742971420288, -0.1456875205039978, 0.28121330690632834, 1728048652818408179, 
-0.38992375135421753, 0.08557784557342529, 0.2650097152336991, 1728048652850761473, 
0.12654262781143188, 0.029942333698272705, 0.3358951665917215, 1728048652877051729, 
0.24944376945495605, 0.06827014684677124, 0.29514723693634554, 1728048652907014520, 
-0.34184062480926514, 0.14804160594940186, 0.26139259706811135, 1728048652937073729, 
0.2868375778198242, -0.17278504371643066, 0.28764679535821003, 1728048652966928540, 
-0.5321108102798462, 0.12796127796173096, 0.3301959724799222, 1728048652996890176, 
0.8504037261009216, 0.016076326370239258, 0.33768849749641033, 1728048653026865832, 
-0.7263312935829163, -0.00021851062774658203, 0.291707458791305, 1728048653058161375, 
-0.06349468231201172, 0.08293676376342773, 0.28742554382374746, 1728048653089550368, 
-0.03895270824432373, -0.26267141103744507, 0.31754996768116384, 1728048653116661800, 
-0.4509369134902954, 0.24112945795059204, 0.2744843328471102, 1728048653146617446, 
-0.0347331166267395, 0.16233831644058228, 0.275636008640482, 1728048653176529241, 
-0.2491084337234497, -0.31283462047576904, 0.27450083373647904, 1728048653206507399, 
0.35857319831848145, 0.26027125120162964, 0.2915733016328672, 1728048653236468624, 
-0.11541366577148438, -0.16181623935699463, 0.3151122781433673, 1728048653266497937, 
0.418520987033844, 0.09493714570999146, 0.2964827419226604, 1728048653298816545, 
-0.20130276679992676, 0.39845162630081177, 0.29471004720556465, 1728048653328326838, 
0.1730847954750061, -0.5907362103462219, 0.3156327517400642, 1728048653355242708, 
-0.12658733129501343, 0.36690855026245117, 0.2706002596979613, 1728048653386393336, 
-0.44997209310531616, 0.10487937927246094, 0.2912377832674049, 1728048653416151861, 
0.27279841899871826, -0.43650197982788086, 0.3053725390736645, 1728048653446131528, 
-0.08376002311706543, 0.5267486572265625, 0.29890694866050743, 1728048653476087637, 
0.10967147350311279, -0.3851153254508972, 0.30522208377920657, 1728048653505211270, 
-0.2666493058204651, 0.15787971019744873, 0.2688890607442616, 1728048653538195503, 
0.02200925350189209, 0.2245330810546875, 0.3373077522139182, 1728048653566060092, 
-0.30157148838043213, 0.13137757778167725, 0.2835541326471817, 1728048653596202467, 
0.3520987629890442, -0.5707032084465027, 0.27005935941506587, 1728048653626044405, 
-0.450323224067688, 0.23611187934875488, 0.29108587587324286, 1728048653655929309, 
0.3394109010696411, -0.06068122386932373, 0.302431588550923, 1728048653685776210, 
-0.42841625213623047, 0.02485668659210205, 0.28228396413336365, 1728048653715761644, 
-0.10331815481185913, 0.07848244905471802, 0.2589790307680729, 1728048653746642439, 
-0.03212493658065796, -0.10258746147155762, 0.2415424057346238, 1728048653777248585, 
-0.33085447549819946, 0.13970625400543213, 0.29304494788028224, 1728048653804543055, 
0.05576455593109131, -0.1478593349456787, 0.2784096751045082, 1728048653835439066, 
-0.3183891177177429, 0.08049529790878296, 0.2853928085627145, 1728048653865380611, 
0.8432571291923523, 0.13486409187316895, 0.2792930881893983, 1728048653895342870, 
-0.652118980884552, -0.06969302892684937, 0.243666128743432, 1728048653925274418, 
0.2996438145637512, 0.17360061407089233, 0.2569463808217809, 1728048653955272496, 
-0.4847028851509094, 0.10079747438430786, 0.2833275244453252, 1728048653986488152, 
-0.22675681114196777, -0.1582012176513672, 0.2820848156541341, 1728048654018285827, 
-0.2022252082824707, 0.3022127151489258, 0.31545332541456855, 1728048654045156339, 
-0.13416123390197754, -0.28610652685165405, 0.26312731399209205, 1728048654075051083, 
0.4896724224090576, -0.06564360857009888, 0.26491171311708567, 1728048654104964193, 
-0.3974186182022095, 0.06944316625595093, 0.27596338862949604, 1728048654134968226, 
0.8924179077148438, -0.04700356721878052, 0.2922324360257945, 1728048654164907360, 
-0.41883009672164917, 0.1484534740447998, 0.28908732964657075, 1728048654194854050, 
0.4859822392463684, -0.1152878999710083, 0.2716690347267187, 1728048654226284000, 
-0.48110049962997437, 0.03398442268371582, 0.244792009872528, 1728048654256991516, 
-0.31070178747177124, 0.18796426057815552, 0.26273449075986965, 1728048654284686654, 
-0.03507649898529053, -0.303062379360199, 0.2922845820708977, 1728048654314677288, 
-0.324857234954834, 0.3889732360839844, 0.3183353668624057, 1728048654344589330, 
0.1901351809501648, -0.06071329116821289, 0.30354719809624703, 1728048654373540966, 
-0.01225060224533081, -0.3580368161201477, 0.2302881168880991, 1728048654404512198, 
0.07119399309158325, 0.5480313301086426, 0.24429370906385448, 1728048654434497823, 
-0.47011834383010864, -0.11080849170684814, 0.23078266278654824, 1728048654466505628, 
0.4809008240699768, -0.08852529525756836, 0.2706144242791435, 1728048654496508530, 
-0.5810871720314026, 0.21511143445968628, 0.3146345943595996, 1728048654524292218, 
0.2801649570465088, -0.2308274507522583, 0.29843294199444254, 1728048654553242090, 
-0.039354681968688965, 0.22678053379058838, 0.25240400632329296, 1728048654584197750, 
-0.5670293569564819, -0.1453380584716797, 0.25287490509615485, 1728048654614162433, 
0.21055257320404053, -0.09946644306182861, 0.2684190366422453, 1728048654644056673, 
-0.3015846610069275, 0.3636639714241028, 0.25085811963471555, 1728048654674275128, 
0.5299320220947266, -0.14961600303649902, 0.2375782346570245, 1728048654706824743, 
-0.5123931169509888, 0.25315290689468384, 0.2988954347803816, 1728048654734048749, 
0.6180325150489807, -0.04142183065414429, 0.29110064864961843, 1728048654763905998, 
-0.2470429539680481, -0.014468193054199219, 0.2704073935972466, 1728048654793835366, 
-0.3036046028137207, -0.050748348236083984, 0.23946189503075155, 1728048654823769700, 
-0.23108035326004028, 0.028403878211975098, 0.22520289449534842, 1728048654853782154, 
0.03746837377548218, -0.03553760051727295, 0.22743926858404978, 1728048654883697925, 
0.015560567378997803, 0.010464668273925781, 0.26932381903367114, 1728048654913220636, 
-0.3296774625778198, 0.30526506900787354, 0.24635357865973745, 1728048654945240160, 
-0.04091644287109375, -0.24574309587478638, 0.2733794971916559, 1728048654973594331, 
-0.08425402641296387, 0.08684676885604858, 0.2760545336443574, 1728048655003484585, 
0.6231532692909241, 0.06256967782974243, 0.2667741843810732, 1728048655033738992, 
-0.5242137312889099, 0.023985445499420166, 0.24021920738821134, 1728048655063346847, 
0.242559015750885, -0.029249191284179688, 0.24052443260167525, 1728048655093369902, 
-0.3580171465873718, -0.014441072940826416, 0.25761087012562006, 1728048655123645370, 
-0.22965574264526367, 0.025038719177246094, 0.262851461584411, 1728048655154963868, 
0.033897578716278076, 0.02543509006500244, 0.2459780500228794, 1728048655186306983, 
-0.20750224590301514, -0.009798109531402588, 0.28612418405650264, 1728048655213313325, 
-0.05434030294418335, 0.2380688190460205, 0.2541161338532348, 1728048655243139857, 
-0.2350170612335205, -0.004335641860961914, 0.2756403888980418, 1728048655272213072, 
0.38520532846450806, -0.29741543531417847, 0.24576078735935752, 1728048655303172739, 
-0.26831382513046265, 0.11672556400299072, 0.21693876927733513, 1728048655333196145, 
0.19391292333602905, 0.3307953476905823, 0.21120224868926474, 1728048655363149861, 
-0.7492393255233765, -0.12733399868011475, 0.2195308778785192, 1728048655393243279, 
0.014724254608154297, 0.02959609031677246, 0.2283966460129305, 1728048655425773686, 
-0.13255184888839722, 0.1917041540145874, 0.29575387723014934, 1728048655453124434, 
-0.11526435613632202, -0.08741247653961182, 0.2546219525967106, 1728048655482968399, 
0.738752007484436, -0.20236968994140625, 0.21882130401197095, 1728048655504413727, 
-0.43942809104919434, 0.02993077039718628, 0.2301599916279719, 1728048655533101049, 
0.2145518660545349, 0.11167913675308228, 0.22911096667632358, 1728048655562919918, 
-0.31767094135284424, 0.16525357961654663, 0.2624269242613714, 1728048655592959648, 
-0.2479451298713684, -0.07600456476211548, 0.2729020102616913, 1728048655622900636, 
-0.19269734621047974, 0.18597924709320068, 0.27227126293630166, 1728048655652938641, 
-0.038976430892944336, -0.06868845224380493, 0.27704693048745377, 1728048655682943474, 
0.25311416387557983, -0.008096873760223389, 0.22331490742858037, 1728048655714602664, 
-0.009675145149230957, 0.026691973209381104, 0.19784217957230749, 1728048655744326993, 
0.2120785117149353, 0.06383967399597168, 0.25458926148823363, 1728048655772969710, 
-0.6949222683906555, 0.0827978253364563, 0.2571131635508742, 1728048655802826892, 
0.29599690437316895, -0.019271254539489746, 0.266406132754128, 1728048655832107587, 
-0.4127017855644226, -0.07687795162200928, 0.21702092405122198, 1728048655862025309, 
0.033255934715270996, -0.059307873249053955, 0.2131167499160688, 1728048655892060931, 
-0.036146581172943115, 0.1763225793838501, 0.23487974277954676, 1728048655922847516, 
-0.10729533433914185, -0.09330499172210693, 0.23108715571040456, 1728048655954331084, 
-0.17246514558792114, 0.16703301668167114, 0.24684003097172375, 1728048655981971434, 
-0.23065924644470215, 0.0410841703414917, 0.23111308415209067, 1728048656011796989, 
-0.18327492475509644, 0.00843435525894165, 0.23006578377596085, 1728048656041730843, 
0.020588934421539307, -0.045732080936431885, 0.2441199953121737, 1728048656071726040, 
0.18162238597869873, -0.09078794717788696, 0.24930402780404928, 1728048656100625157, 
-0.25181901454925537, 0.27126216888427734, 0.2106053284146037, 1728048656131669019, 
-0.1564233899116516, -0.11573845148086548, 0.20697298273462278, 1728048656162661581, 
-0.12372297048568726, -0.1789788007736206, 0.21104169312407778, 1728048656194417043, 
0.263624370098114, 0.22052663564682007, 0.25221471984362503, 1728048656221495114, 
-0.3112644553184509, 0.2145819067955017, 0.23895012622005896, 1728048656251369469, 
-0.30287855863571167, -0.15256965160369873, 0.2444963186747516, 1728048656281297323, 
0.7223861217498779, 0.11927103996276855, 0.2664192519880707, 1728048656311307227, 
-0.4160301685333252, 0.1100534200668335, 0.25775554484657776, 1728048656341199484, 
0.23483359813690186, 0.06176537275314331, 0.22681285854498526, 1728048656370251580, 
-0.22880953550338745, 0.07959133386611938, 0.19952902738491418, 1728048656402333687, 
-0.037893712520599365, -0.05885040760040283, 0.21010890276419206, 1728048656434778170, 
-0.14538615942001343, 0.019891679286956787, 0.2563280621253946, 1728048656471033557, 
-0.013271808624267578, -0.0014134049415588379, 0.2215624718761738, 1728048656500968844, 
-0.06395530700683594, -0.13577914237976074, 0.20365105462631802, 1728048656530963335, 
-0.38141322135925293, 0.08225303888320923, 0.19102282110908322, 1728048656562821149, 
0.1662611961364746, -0.03714174032211304, 0.23112002118732292, 1728048656593401513, 
-0.19023513793945312, 0.19863426685333252, 0.23921638724769131, 1728048656620752373, 
0.2571566700935364, -0.03754478693008423, 0.22136917967686157, 1728048656650718481, 
-0.8312307596206665, 0.09365087747573853, 0.2131012390477312, 1728048656680708976, 
0.6267575025558472, 0.1803513765335083, 0.2290770230291659, 1728048656710679926, 
-0.23574954271316528, -0.07526445388793945, 0.23402629575451128, 1728048656740616911, 
-0.27490144968032837, -0.0017808079719543457, 0.222689403514842, 1728048656770567117, 
-0.5686101913452148, -0.07590776681900024, 0.19418577456787145, 1728048656802537617, 
0.10087776184082031, 0.18631476163864136, 0.21660002113062907, 1728048656830588416, 
-0.3525753617286682, 0.16174256801605225, 0.22220421367014864, 1728048656860423932, 
-0.09238046407699585, -0.1700475811958313, 0.21476494672751817, 1728048656890503189, 
0.26403671503067017, 0.0013004541397094727, 0.20563951398010039, 1728048656912415487, 
-0.1624056100845337, 0.21357065439224243, 0.2534820053160769, 1728048656949210326, 
0.20278799533843994, -0.19047868251800537, 0.2207511418880813, 1728048656980119252, 
-0.5946038365364075, 0.14066082239151, 0.1829193173233596, 1728048657010932209, 
0.8628370761871338, 0.06590461730957031, 0.1946750441357474, 1728048657042467808, 
-0.657791018486023, 0.1840687394142151, 0.2285170328474595, 1728048657070035306, 
-0.5892044901847839, 0.0034741759300231934, 0.2270831840673222, 1728048657099969334, 
-0.08830773830413818, 0.020864665508270264, 0.20176331458630972, 1728048657129919887, 
-0.3571053147315979, -0.3148200511932373, 0.20488518885342694, 1728048657159844399, 
0.38291579484939575, 0.3325335383415222, 0.21395868641055404, 1728048657189841843, 
0.0006676316261291504, -0.14328336715698242, 0.21044201683657998, 1728048657219719185, 
0.03667956590652466, 0.28558701276779175, 0.20352171335454192, 1728048657250540605, 
-0.5414935946464539, -0.2798415422439575, 0.20280939236714357, 1728048657283069948, 
0.05969029664993286, -0.15318983793258667, 0.23426199704001902, 1728048657319573204, 
0.07979720830917358, 0.16432791948318481, 0.21958097539411672, 1728048657349566478, 
0.13885998725891113, 0.05369669198989868, 0.23411290764521694, 1728048657379505748, 
-0.38527584075927734, 0.030611097812652588, 0.20381548892170803, 1728048657410590387, 
-0.2041117548942566, 0.026073455810546875, 0.18875697388358928, 1728048657442750634, 
-0.062423646450042725, -0.12224578857421875, 0.2303314248909946, 1728048657469446863, 
-0.13513648509979248, 0.23021477460861206, 0.22356323630467603, 1728048657498312775, 
-0.13091033697128296, 0.13261139392852783, 0.20816032112626295, 1728048657528289437, 
-0.12596607208251953, -0.17881566286087036, 0.20592884363940056, 1728048657559166271, 
0.0012933611869812012, 0.06430792808532715, 0.23350356258940255, 1728048657589113006, 
-0.011307299137115479, 0.0026346445083618164, 0.22651634140806354, 1728048657619114457, 
-0.33593517541885376, 0.07117807865142822, 0.16824674160052927, 1728048657651310639, 
-0.28041893243789673, -0.06381303071975708, 0.1617572493363854, 1728048657681697328, 
-0.020640075206756592, 0.17162132263183594, 0.2006649184193746, 1728048657708978145, 
0.3212652802467346, -0.08961856365203857, 0.19649988795878648, 1728048657730886130, 
-0.41085952520370483, 0.11412698030471802, 0.20795933387208027, 1728048657761588668, 
0.3711850643157959, 0.026739299297332764, 0.2460055459289191, 1728048657788847763, 
-0.7474277019500732, 0.11946076154708862, 0.2114130785933872, 1728048657817692389, 
0.3672029972076416, -0.1026601791381836, 0.16575051095449497, 1728048657848645829, 
-0.14852726459503174, -0.11059361696243286, 0.18762515050294626, 1728048657878633002, 
-0.37687867879867554, 0.10927504301071167, 0.18405399147343593, 1728048657908615246, 
-0.05284541845321655, 0.10694313049316406, 0.2125198559491501, 1728048657938578826, 
-0.45408695936203003, 0.010958671569824219, 0.19281347979123714, 1728048657971144844, 
0.2969972491264343, 0.16749680042266846, 0.2367095153967188, 1728048657998445995, 
-0.35505539178848267, 0.04587209224700928, 0.19781133453757058, 1728048658028375881, 
0.6258330345153809, -0.12120962142944336, 0.20404576225637305, 1728048658058316917, 
-0.5629075765609741, -0.12522971630096436, 0.2127479946065714, 1728048658087253763, 
0.4131487011909485, 0.16486620903015137, 0.18292564960150762, 1728048658118203092, 
-0.2883135676383972, 0.16666775941848755, 0.16608320124384715, 1728048658148474597, 
-0.6356267333030701, -0.24685871601104736, 0.1606964266473106, 1728048658178990845, 
0.3230602741241455, 0.06761783361434937, 0.17720237545124892, 1728048658210638738, 
0.11818933486938477, 0.08936166763305664, 0.2510209739679326, 1728048658238081267, 
0.407690167427063, -0.0336991548538208, 0.21214887514172892, 1728048658267969437, 
-0.45010656118392944, 0.12603765726089478, 0.1855117884912478, 1728048658297925866, 
0.48349088430404663, 0.04171943664550781, 0.17975267196576772, 1728048658327885428, 
-0.32219499349594116, 0.07130008935928345, 0.1891654147809223, 1728048658357768206, 
-0.49099212884902954, -0.01420217752456665, 0.18878862294504584, 1728048658387819157, 
0.47433531284332275, -0.07361847162246704, 0.20023297397659304, 1728048658419082291, 
-0.15954816341400146, 0.11476624011993408, 0.20975647736086814, 1728048658450558186, 
0.16164368391036987, -0.16242480278015137, 0.2219481900669847, 1728048658477662848, 
-0.10867345333099365, 0.037017822265625, 0.19432733694778404, 1728048658507676446, 
0.07043993473052979, 0.14241456985473633, 0.1756524272506987, 1728048658537487895, 
-0.11000531911849976, -0.12167966365814209, 0.18223405148919458, 1728048658567479781, 
-0.01974046230316162, 0.09305316209793091, 0.19506859914916672, 1728048658597423430, 
-0.0950927734375, 0.053460121154785156, 0.19895332306363278, 1728048658627474168, 
-0.2362554669380188, 0.03676629066467285, 0.17816005537360746, 1728048658658414204, 
0.023919403553009033, -0.03888624906539917, 0.148019646231308, 1728048658690637652, 
-0.1786125898361206, 0.20107495784759521, 0.16972449179048169, 1728048658717190269, 
0.21883922815322876, -0.12038600444793701, 0.16440015197704078, 1728048658747157678, 
-0.35055428743362427, 0.12544786930084229, 0.18153491301030789, 1728048658777092137, 
0.2676067352294922, -0.006473183631896973, 0.18481189282835653, 1728048658807139752, 
-0.5217429995536804, 0.12025225162506104, 0.1571545864286092, 1728048658837066208, 
0.031536996364593506, -0.013362586498260498, 0.1720625786850849, 1728048658867130199, 
-0.24113774299621582, 0.11585921049118042, 0.19211911160106548, 1728048658898455288, 
0.1610656976699829, 0.08349710702896118, 0.17796441419472944, 1728048658929490720, 
-0.047337353229522705, 0.07085257768630981, 0.17813680892365674, 1728048658956807979, 
-0.2404336929321289, 0.03842216730117798, 0.16538853670515255, 1728048658985768724, 
0.44857293367385864, -0.04334372282028198, 0.16319796171559675, 1728048659007821220, 
-0.5990408658981323, 0.19636273384094238, 0.18305836372961012, 1728048659036716682, 
0.35810911655426025, 0.03889131546020508, 0.1910785534419844, 1728048659066613774, 
-0.14614474773406982, -0.01965886354446411, 0.18389016481991485, 1728048659096574679, 
-0.3139153718948364, 0.18746930360794067, 0.18799460640856847, 1728048659126492992, 
-0.10079741477966309, 0.04266470670700073, 0.1452816833021691, 1728048659156511601, 
-0.1976388692855835, -0.26794344186782837, 0.1371111401778668, 1728048659187086152, 
0.1183476448059082, 0.34082818031311035, 0.15160498641648812, 1728048659218444825, 
-0.27356910705566406, 0.015196263790130615, 0.2196150984311075, 1728048659246399699, 
0.03298604488372803, 0.07681572437286377, 0.19742665463650497, 1728048659276287629, 
-0.30847519636154175, -0.2834552526473999, 0.17928913090315446, 1728048659306201612, 
0.03931373357772827, 0.18790340423583984, 0.16573854137159266, 1728048659336191449, 
-0.19048964977264404, 0.22963303327560425, 0.1533894593802372, 1728048659366186110, 
-0.06957536935806274, -0.09308445453643799, 0.13886432176446142, 1728048659396070155, 
0.04652899503707886, 0.10076969861984253, 0.17270834130610055, 1728048659426736258, 
-0.13111424446105957, -0.027458012104034424, 0.17702868869965768, 1728048659458535946, 
0.351052463054657, 0.11966919898986816, 0.2064824415875324, 1728048659485947488, 
-0.6522871255874634, -0.0681988000869751, 0.16608645562813992, 1728048659515888830, 
0.26622045040130615, -0.014761507511138916, 0.14147683094882732, 1728048659545804851, 
-0.05658459663391113, 0.1635727882385254, 0.1533710677185131, 1728048659575745209, 
